,Unnamed: 0,Unnamed: 0.1,Unnamed: 0.1.1,Unnamed: 0.1.1.1,Unnamed: 0.1.1.1.1,Unnamed: 0.1.1.1.1.1,Unnamed: 0.1.1.1.1.1.1,Unnamed: 0.1.1.1.1.1.1.1,Unnamed: 0.1.1.1.1.1.1.1.1,Unnamed: 0.1.1.1.1.1.1.1.1.1,Unnamed: 0.1.1.1.1.1.1.1.1.1.1,subject,trial_num,letter,frequency,r,g,b,ITI,oddball,button,correct,RT,missing,letter_color_pair
0,0,0,0,0,0,0,0,0,0,0,0,102,0,O,40,138,154,91,0.62,0,lalt,True,0.49731486,False,22
1,1,1,1,1,1,1,1,1,1,1,1,102,1,I,80,3,121,112,0.57,0,lalt,True,0.43873011,False,15
2,2,2,2,2,2,2,2,2,2,2,2,102,2,T,40,157,193,131,0.95,0,lalt,True,0.46665342,False,31
3,3,3,3,3,3,3,3,3,3,3,3,102,3,R,20,138,154,91,0.89,0,lalt,True,0.45897475,False,28
4,4,4,4,4,4,4,4,4,4,4,4,102,4,R,20,138,154,91,0.99,0,lalt,True,0.40918695,False,28
5,5,5,5,5,5,5,5,5,5,5,5,102,5,2,0,76,154,68,0.92,1,ralt,True,0.3386263,False,36
6,6,6,6,6,6,6,6,6,6,6,6,102,6,A,20,157,193,131,0.74,0,lalt,True,0.40256884,False,1
7,7,7,7,7,7,7,7,7,7,7,7,102,7,D,80,0,168,107,0.83,0,lalt,True,0.44413007,False,8
8,8,8,8,8,8,8,8,8,8,8,8,102,8,D,80,0,168,107,0.71,0,lalt,True,0.39440552,False,8
9,9,9,9,9,9,9,9,9,9,9,9,102,9,T,40,157,193,131,0.68,0,lalt,True,0.37244698,False,31
10,10,10,10,10,10,10,10,10,10,10,10,102,10,D,80,76,154,68,0.59,0,lalt,True,0.31858307,False,6
11,11,11,11,11,11,11,11,11,11,11,11,102,11,D,80,0,168,107,0.63,0,lalt,True,0.32212987,False,8
12,12,12,12,12,12,12,12,12,12,12,12,102,12,D,80,3,121,112,0.83,0,lalt,True,0.32412090000000005,False,9
13,13,13,13,13,13,13,13,13,13,13,13,102,13,R,20,76,154,68,0.6,0,lalt,True,0.33828313,False,24
14,14,14,14,14,14,14,14,14,14,14,14,102,14,I,80,3,121,112,1.0,0,lalt,True,0.38013454,False,15
15,15,15,15,15,15,15,15,15,15,15,15,102,15,I,80,3,121,112,0.92,0,lalt,True,0.3474607,False,15
16,16,16,16,16,16,16,16,16,16,16,16,102,16,O,40,0,168,107,0.9,0,lalt,True,0.31550233,False,20
17,17,17,17,17,17,17,17,17,17,17,17,102,17,D,80,157,193,131,0.73,0,lalt,True,0.32917353,False,7
18,18,18,18,18,18,18,18,18,18,18,18,102,18,D,80,0,168,107,0.51,0,lalt,True,0.38427585,False,8
19,19,19,19,19,19,19,19,19,19,19,19,102,19,A,20,75,124,89,0.61,0,lalt,True,0.33428802,False,5
20,20,20,20,20,20,20,20,20,20,20,20,102,20,R,20,76,154,68,0.6,0,lalt,True,0.33182344,False,24
21,21,21,21,21,21,21,21,21,21,21,21,102,21,T,40,157,193,131,0.79,0,lalt,True,0.34206407,False,31
22,22,22,22,22,22,22,22,22,22,22,22,102,22,D,80,0,168,107,0.68,0,lalt,True,0.30960774,False,8
23,23,23,23,23,23,23,23,23,23,23,23,102,23,A,20,138,154,91,0.62,0,lalt,True,0.32510934,False,4
24,24,24,24,24,24,24,24,24,24,24,24,102,24,O,40,138,154,91,0.87,0,lalt,True,0.57526761,False,22
25,25,25,25,25,25,25,25,25,25,25,25,102,25,T,40,157,193,131,0.86,0,lalt,True,0.38258248,False,31
26,26,26,26,26,26,26,26,26,26,26,26,102,26,D,80,0,168,107,0.68,0,lalt,True,0.38126835,False,8
27,27,27,27,27,27,27,27,27,27,27,27,102,27,T,40,157,193,131,0.76,0,lalt,True,0.50303607,False,31
28,28,28,28,28,28,28,28,28,28,28,28,102,28,D,80,0,168,107,0.97,0,lalt,True,0.48088751,False,8
29,29,29,29,29,29,29,29,29,29,29,29,102,29,5,0,75,124,89,0.65,1,ralt,True,0.3557497000000001,False,36
30,30,30,30,30,30,30,30,30,30,30,30,102,30,A,20,76,154,68,0.78,0,lalt,True,0.42823008,False,0
31,31,31,31,31,31,31,31,31,31,31,31,102,31,I,80,3,121,112,0.98,0,lalt,True,0.39025089,False,15
32,32,32,32,32,32,32,32,32,32,32,32,102,32,R,20,76,154,68,0.75,0,lalt,True,0.37609116,False,24
33,33,33,33,33,33,33,33,33,33,33,33,102,33,A,20,3,121,112,0.52,0,lalt,True,0.43169893,False,3
34,34,34,34,34,34,34,34,34,34,34,34,102,34,T,40,75,124,89,0.94,0,lalt,True,0.38285435,False,35
35,35,35,35,35,35,35,35,35,35,35,35,102,35,O,40,75,124,89,0.68,0,lalt,True,0.42876217,False,23
36,36,36,36,36,36,36,36,36,36,36,36,102,36,O,40,138,154,91,0.8,0,lalt,True,0.32026866,False,22
37,37,37,37,37,37,37,37,37,37,37,37,102,37,R,20,76,154,68,0.93,0,lalt,True,0.31653572,False,24
38,38,38,38,38,38,38,38,38,38,38,38,102,38,O,40,138,154,91,0.8,0,lalt,True,0.34817533,False,22
39,39,39,39,39,39,39,39,39,39,39,39,102,39,A,20,75,124,89,0.98,0,lalt,True,0.34968838,False,5
40,40,40,40,40,40,40,40,40,40,40,40,102,40,T,40,75,124,89,0.63,0,lalt,True,0.33135293,False,35
41,41,41,41,41,41,41,41,41,41,41,41,102,41,D,80,0,168,107,0.93,0,lalt,True,0.35985272,False,8
42,42,42,42,42,42,42,42,42,42,42,42,102,42,A,20,157,193,131,0.64,0,lalt,True,0.30936166,False,1
43,43,43,43,43,43,43,43,43,43,43,43,102,43,O,40,138,154,91,0.9,0,lalt,True,0.38756409,False,22
44,44,44,44,44,44,44,44,44,44,44,44,102,44,D,80,0,168,107,0.99,0,lalt,True,0.34730923,False,8
45,45,45,45,45,45,45,45,45,45,45,45,102,45,R,20,0,168,107,0.94,0,lalt,True,0.35884875,False,26
46,46,46,46,46,46,46,46,46,46,46,46,102,46,4,0,245,127,32,0.57,1,ralt,True,0.39206327,False,36
47,47,47,47,47,47,47,47,47,47,47,47,102,47,T,40,157,193,131,0.74,0,lalt,True,0.31262078,False,31
48,48,48,48,48,48,48,48,48,48,48,48,102,48,O,40,138,154,91,0.97,0,lalt,True,0.36646722,False,22
49,49,49,49,49,49,49,49,49,49,49,49,102,49,O,40,157,193,131,0.79,0,lalt,True,0.32828385,False,19
50,50,50,50,50,50,50,50,50,50,50,50,102,50,A,20,75,124,89,0.87,0,lalt,True,0.33304408,False,5
51,51,51,51,51,51,51,51,51,51,51,51,102,51,O,40,157,193,131,0.84,0,lalt,True,0.29900978,False,19
52,52,52,52,52,52,52,52,52,52,52,52,102,52,I,80,3,121,112,0.76,0,lalt,True,0.43305745,False,15
53,53,53,53,53,53,53,53,53,53,53,53,102,53,I,80,3,121,112,0.91,0,lalt,True,0.37665376,False,15
54,54,54,54,54,54,54,54,54,54,54,54,102,54,O,0,245,127,32,0.67,1,ralt,True,0.43467647,False,36
55,55,55,55,55,55,55,55,55,55,55,55,102,55,O,40,157,193,131,0.65,0,lalt,True,0.42423414,False,19
56,56,56,56,56,56,56,56,56,56,56,56,102,56,I,80,3,121,112,0.78,0,lalt,True,0.39422103,False,15
57,57,57,57,57,57,57,57,57,57,57,57,102,57,I,80,3,121,112,0.74,0,lalt,True,0.3961244,False,15
58,58,58,58,58,58,58,58,58,58,58,58,102,58,R,20,157,193,131,0.68,0,lalt,True,0.37573467,False,25
59,59,59,59,59,59,59,59,59,59,59,59,102,59,I,80,3,121,112,0.99,0,lalt,True,0.39394805,False,15
60,60,60,60,60,60,60,60,60,60,60,60,102,60,R,20,3,121,112,0.8,0,lalt,True,0.34978769,False,27
61,61,61,61,61,61,61,61,61,61,61,61,102,61,D,80,0,168,107,1.0,0,lalt,True,0.38559109,False,8
62,62,62,62,62,62,62,62,62,62,62,62,102,62,D,80,0,168,107,0.65,0,lalt,True,0.40125305,False,8
63,63,63,63,63,63,63,63,63,63,63,63,102,63,I,80,138,154,91,0.59,0,lalt,True,0.42728048,False,16
64,64,64,64,64,64,64,64,64,64,64,64,102,64,T,40,138,154,91,0.72,0,lalt,True,0.45467531,False,34
65,65,65,65,65,65,65,65,65,65,65,65,102,65,I,80,76,154,68,0.94,0,lalt,True,0.41963038,False,12
66,66,66,66,66,66,66,66,66,66,66,66,102,66,I,0,245,127,32,0.74,1,lalt,False,0.39966066,False,36
67,67,67,67,67,67,67,67,67,67,67,67,102,67,A,20,157,193,131,0.88,0,lalt,True,0.46770456,False,1
68,68,68,68,68,68,68,68,68,68,68,68,102,68,D,80,0,168,107,0.95,0,lalt,True,0.48123206,False,8
69,69,69,69,69,69,69,69,69,69,69,69,102,69,T,40,75,124,89,0.51,0,lalt,True,0.5210056,False,35
70,70,70,70,70,70,70,70,70,70,70,70,102,70,R,20,3,121,112,0.8,0,lalt,True,0.42128712,False,27
71,71,71,71,71,71,71,71,71,71,71,71,102,71,D,80,0,168,107,0.94,0,lalt,True,0.38304438,False,8
72,72,72,72,72,72,72,72,72,72,72,72,102,72,D,80,3,121,112,0.63,0,lalt,True,0.36875676,False,9
73,73,73,73,73,73,73,73,73,73,73,73,102,73,A,20,138,154,91,0.85,0,lalt,True,0.36458604,False,4
74,74,74,74,74,74,74,74,74,74,74,74,102,74,T,40,157,193,131,0.96,0,lalt,True,0.31623166,False,31
75,75,75,75,75,75,75,75,75,75,75,75,102,75,A,20,3,121,112,0.61,0,lalt,True,0.34239254,False,3
76,76,76,76,76,76,76,76,76,76,76,76,102,76,A,20,75,124,89,0.97,0,lalt,True,0.41201357,False,5
77,77,77,77,77,77,77,77,77,77,77,77,102,77,8,0,245,127,32,0.63,1,ralt,True,0.45130523,False,36
78,78,78,78,78,78,78,78,78,78,78,78,102,78,T,40,157,193,131,0.78,0,lalt,True,0.44805055,False,31
79,79,79,79,79,79,79,79,79,79,79,79,102,79,R,20,3,121,112,0.81,0,lalt,True,0.54171408,False,27
80,80,80,80,80,80,80,80,80,80,80,80,102,80,5,0,245,127,32,0.97,1,ralt,True,0.42959804,False,36
81,81,81,81,81,81,81,81,81,81,81,81,102,81,D,80,0,168,107,0.71,0,lalt,True,0.64626492,False,8
82,82,82,82,82,82,82,82,82,82,82,82,102,82,I,80,3,121,112,0.9,0,lalt,True,0.56799397,False,15
83,83,83,83,83,83,83,83,83,83,83,83,102,83,D,80,0,168,107,0.82,0,lalt,True,0.38209922,False,8
84,84,84,84,84,84,84,84,84,84,84,84,102,84,R,20,0,168,107,0.9,0,lalt,True,0.36791341,False,26
85,85,85,85,85,85,85,85,85,85,85,85,102,85,A,20,75,124,89,0.62,0,lalt,True,0.34188431,False,5
86,86,86,86,86,86,86,86,86,86,86,86,102,86,A,20,138,154,91,0.58,0,lalt,True,0.37362657,False,4
87,87,87,87,87,87,87,87,87,87,87,87,102,87,D,80,0,168,107,0.75,0,lalt,True,0.34948725,False,8
88,88,88,88,88,88,88,88,88,88,88,88,102,88,I,80,3,121,112,0.97,0,lalt,True,0.33325159,False,15
89,89,89,89,89,89,89,89,89,89,89,89,102,89,7,0,138,154,91,0.64,1,ralt,True,0.46444767,False,36
90,90,90,90,90,90,90,90,90,90,90,90,102,90,T,40,0,168,107,0.68,0,lalt,True,0.29878313,False,32
91,91,91,91,91,91,91,91,91,91,91,91,102,91,O,40,76,154,68,0.57,0,lalt,True,0.35688351,False,18
92,92,92,92,92,92,92,92,92,92,92,92,102,92,R,20,75,124,89,0.89,0,lalt,True,0.43683062,False,29
93,93,93,93,93,93,93,93,93,93,93,93,102,93,I,80,3,121,112,0.61,0,lalt,True,0.35629205,False,15
94,94,94,94,94,94,94,94,94,94,94,94,102,94,A,20,75,124,89,0.9,0,lalt,True,0.36847657,False,5
95,95,95,95,95,95,95,95,95,95,95,95,102,95,R,20,138,154,91,0.65,0,lalt,True,0.37836072,False,28
96,96,96,96,96,96,96,96,96,96,96,96,102,96,O,40,76,154,68,0.98,0,lalt,True,0.43811535,False,18
97,97,97,97,97,97,97,97,97,97,97,97,102,97,O,40,138,154,91,0.56,0,lalt,True,0.29466291,False,22
98,98,98,98,98,98,98,98,98,98,98,98,102,98,O,40,138,154,91,0.8,0,lalt,True,0.35641717,False,22
99,99,99,99,99,99,99,99,99,99,99,99,102,99,I,80,3,121,112,0.89,0,lalt,True,0.29649248,False,15
100,100,100,100,100,100,100,100,100,100,100,100,102,100,A,20,3,121,112,0.9,0,lalt,True,0.30447771,False,3
101,101,101,101,101,101,101,101,101,101,101,101,102,101,O,40,75,124,89,0.77,0,lalt,True,0.31409138,False,23
102,102,102,102,102,102,102,102,102,102,102,102,102,102,A,20,76,154,68,0.7,0,lalt,True,0.30995922,False,0
103,103,103,103,103,103,103,103,103,103,103,103,102,103,O,40,138,154,91,0.63,0,lalt,True,0.35206752,False,22
104,104,104,104,104,104,104,104,104,104,104,104,102,104,A,20,157,193,131,0.59,0,lalt,True,0.38787175,False,1
105,105,105,105,105,105,105,105,105,105,105,105,102,105,O,40,138,154,91,0.73,0,lalt,True,0.28784256,False,22
106,106,106,106,106,106,106,106,106,106,106,106,102,106,O,40,138,154,91,0.58,0,lalt,True,0.30530719,False,22
107,107,107,107,107,107,107,107,107,107,107,107,102,107,D,80,0,168,107,0.54,0,lalt,True,0.27746405,False,8
108,108,108,108,108,108,108,108,108,108,108,108,102,108,D,80,0,168,107,0.82,0,lalt,True,0.35725914,False,8
109,109,109,109,109,109,109,109,109,109,109,109,102,109,D,80,75,124,89,0.93,0,lalt,True,0.32288805,False,11
110,110,110,110,110,110,110,110,110,110,110,110,102,110,R,20,138,154,91,0.63,0,lalt,True,0.32076608,False,28
111,111,111,111,111,111,111,111,111,111,111,111,102,111,I,80,3,121,112,0.72,0,lalt,True,0.40495714,False,15
112,112,112,112,112,112,112,112,112,112,112,112,102,112,A,20,138,154,91,0.91,0,lalt,True,0.31834754,False,4
113,113,113,113,113,113,113,113,113,113,113,113,102,113,O,40,76,154,68,0.66,0,lalt,True,0.32571967,False,18
114,114,114,114,114,114,114,114,114,114,114,114,102,114,T,40,157,193,131,0.85,0,lalt,True,0.41521415,False,31
115,115,115,115,115,115,115,115,115,115,115,115,102,115,O,40,0,168,107,0.6,0,lalt,True,0.41520111,False,20
116,116,116,116,116,116,116,116,116,116,116,116,102,116,O,40,75,124,89,0.61,0,lalt,True,0.53463435,False,23
117,117,117,117,117,117,117,117,117,117,117,117,102,117,1,0,245,127,32,0.87,1,ralt,True,0.42819513,False,36
118,118,118,118,118,118,118,118,118,118,118,118,102,118,T,40,157,193,131,0.88,0,lalt,True,0.38088606,False,31
119,119,119,119,119,119,119,119,119,119,119,119,102,119,I,80,3,121,112,0.86,0,lalt,True,0.44275601,False,15
120,120,120,120,120,120,120,120,120,120,120,120,102,120,R,20,138,154,91,0.58,0,lalt,True,0.46469124,False,28
121,121,121,121,121,121,121,121,121,121,121,121,102,121,T,40,138,154,91,0.6,0,lalt,True,0.3465455,False,34
122,122,122,122,122,122,122,122,122,122,122,122,102,122,A,20,75,124,89,0.51,0,lalt,True,0.48736857,False,5
123,123,123,123,123,123,123,123,123,123,123,123,102,123,A,20,76,154,68,0.77,0,lalt,True,0.3618002,False,0
124,124,124,124,124,124,124,124,124,124,124,124,102,124,O,40,138,154,91,0.71,0,lalt,True,0.47218155,False,22
125,125,125,125,125,125,125,125,125,125,125,125,102,125,R,20,76,154,68,0.74,0,lalt,True,0.32599265,False,24
126,126,126,126,126,126,126,126,126,126,126,126,102,126,T,40,75,124,89,0.66,0,lalt,True,0.30376169,False,35
127,127,127,127,127,127,127,127,127,127,127,127,102,127,O,40,3,121,112,0.6,0,lalt,True,0.36165151,False,21
128,128,128,128,128,128,128,128,128,128,128,128,102,128,9,0,138,154,91,0.77,1,ralt,True,0.51872799,False,36
129,129,129,129,129,129,129,129,129,129,129,129,102,129,A,20,75,124,89,0.79,0,lalt,True,0.38328518,False,5
130,130,130,130,130,130,130,130,130,130,130,130,102,130,D,80,3,121,112,0.95,0,lalt,True,0.33142395,False,9
131,131,131,131,131,131,131,131,131,131,131,131,102,131,6,0,0,168,107,0.53,1,ralt,True,0.4470782,False,36
132,132,132,132,132,132,132,132,132,132,132,132,102,132,A,20,76,154,68,0.97,0,lalt,True,0.51182054,False,0
133,133,133,133,133,133,133,133,133,133,133,133,102,133,4,0,245,127,32,0.92,1,ralt,True,0.50735853,False,36
134,134,134,134,134,134,134,134,134,134,134,134,102,134,R,20,76,154,68,0.75,0,lalt,True,0.47751271,False,24
135,135,135,135,135,135,135,135,135,135,135,135,102,135,T,40,0,168,107,0.65,0,lalt,True,0.4770963,False,32
136,136,136,136,136,136,136,136,136,136,136,136,102,136,R,20,157,193,131,0.92,0,lalt,True,0.37319352,False,25
137,137,137,137,137,137,137,137,137,137,137,137,102,137,T,40,75,124,89,0.96,0,lalt,True,0.37071755,False,35
138,138,138,138,138,138,138,138,138,138,138,138,102,138,T,40,157,193,131,0.52,0,lalt,True,0.36663367,False,31
139,139,139,139,139,139,139,139,139,139,139,139,102,139,T,40,75,124,89,0.51,0,lalt,True,0.3784764,False,35
140,140,140,140,140,140,140,140,140,140,140,140,102,140,I,80,138,154,91,0.77,0,lalt,True,0.3847039,False,16
141,141,141,141,141,141,141,141,141,141,141,141,102,141,D,80,0,168,107,0.61,0,lalt,True,0.43661507,False,8
142,142,142,142,142,142,142,142,142,142,142,142,102,142,R,20,75,124,89,0.74,0,lalt,True,0.32424297,False,29
143,143,143,143,143,143,143,143,143,143,143,143,102,143,A,20,0,168,107,0.72,0,lalt,True,0.32616797,False,2
144,144,144,144,144,144,144,144,144,144,144,144,102,144,O,40,0,168,107,0.78,0,lalt,True,0.30808082,False,20
145,145,145,145,145,145,145,145,145,145,145,145,102,145,A,20,75,124,89,0.61,0,lalt,True,0.32146462,False,5
146,146,146,146,146,146,146,146,146,146,146,146,102,146,R,20,76,154,68,0.99,0,lalt,True,0.35050482,False,24
147,147,147,147,147,147,147,147,147,147,147,147,102,147,A,20,157,193,131,0.99,0,lalt,True,0.33039473,False,1
148,148,148,148,148,148,148,148,148,148,148,148,102,148,9,0,245,127,32,0.8,1,ralt,True,0.43831398,False,36
149,149,149,149,149,149,149,149,149,149,149,149,102,149,D,80,0,168,107,0.73,0,lalt,True,0.51623816,False,8
150,150,150,150,150,150,150,150,150,150,150,150,102,150,T,40,157,193,131,0.62,0,lalt,True,0.33970601,False,31
151,151,151,151,151,151,151,151,151,151,151,151,102,151,1,0,75,124,89,0.66,1,ralt,True,0.43758465,False,36
152,152,152,152,152,152,152,152,152,152,152,152,102,152,O,40,157,193,131,0.51,0,lalt,True,0.54732571,False,19
153,153,153,153,153,153,153,153,153,153,153,153,102,153,A,20,138,154,91,0.95,0,lalt,True,0.62936539,False,4
154,154,154,154,154,154,154,154,154,154,154,154,102,154,D,80,138,154,91,0.61,0,lalt,True,0.4615148,False,10
155,155,155,155,155,155,155,155,155,155,155,155,102,155,T,40,157,193,131,0.78,0,lalt,True,0.37334055,False,31
156,156,156,156,156,156,156,156,156,156,156,156,102,156,O,40,138,154,91,0.54,0,lalt,True,0.3471733,False,22
157,157,157,157,157,157,157,157,157,157,157,157,102,157,R,20,157,193,131,0.7,0,lalt,True,0.3648962,False,25
158,158,158,158,158,158,158,158,158,158,158,158,102,158,O,40,138,154,91,0.92,0,lalt,True,0.31051351,False,22
159,159,159,159,159,159,159,159,159,159,159,159,102,159,T,40,157,193,131,0.73,0,lalt,True,0.33237716,False,31
160,160,160,160,160,160,160,160,160,160,160,160,102,160,R,20,75,124,89,0.66,0,lalt,True,0.36836005,False,29
161,161,161,161,161,161,161,161,161,161,161,161,102,161,D,80,138,154,91,0.72,0,lalt,True,0.37044874,False,10
162,162,162,162,162,162,162,162,162,162,162,162,102,162,T,40,157,193,131,0.87,0,lalt,True,0.31424867,False,31
163,163,163,163,163,163,163,163,163,163,163,163,102,163,A,20,75,124,89,0.78,0,lalt,True,0.3307476,False,5
164,164,164,164,164,164,164,164,164,164,164,164,102,164,R,20,76,154,68,0.54,0,lalt,True,0.45656925,False,24
165,165,165,165,165,165,165,165,165,165,165,165,102,165,A,20,3,121,112,0.81,0,lalt,True,0.31844325,False,3
166,166,166,166,166,166,166,166,166,166,166,166,102,166,R,20,0,168,107,0.69,0,lalt,True,0.32663543,False,26
167,167,167,167,167,167,167,167,167,167,167,167,102,167,D,80,0,168,107,0.88,0,lalt,True,0.57784234,False,8
168,168,168,168,168,168,168,168,168,168,168,168,102,168,A,20,0,168,107,0.64,0,lalt,True,0.37236875,False,2
169,169,169,169,169,169,169,169,169,169,169,169,102,169,A,20,0,168,107,0.76,0,lalt,True,0.33795411,False,2
170,170,170,170,170,170,170,170,170,170,170,170,102,170,A,20,157,193,131,0.89,0,lalt,True,0.42941466,False,1
171,171,171,171,171,171,171,171,171,171,171,171,102,171,I,80,138,154,91,0.62,0,lalt,True,0.32795677,False,16
172,172,172,172,172,172,172,172,172,172,172,172,102,172,T,40,157,193,131,0.74,0,lalt,True,0.3253618,False,31
173,173,173,173,173,173,173,173,173,173,173,173,102,173,A,20,75,124,89,0.79,0,lalt,True,0.33121866,False,5
174,174,174,174,174,174,174,174,174,174,174,174,102,174,T,40,157,193,131,0.58,0,lalt,True,0.38746894,False,31
175,175,175,175,175,175,175,175,175,175,175,175,102,175,A,20,75,124,89,0.51,0,lalt,True,0.35723084,False,5
176,176,176,176,176,176,176,176,176,176,176,176,102,176,R,20,76,154,68,0.76,0,lalt,True,0.26497354,False,24
177,177,177,177,177,177,177,177,177,177,177,177,102,177,A,20,157,193,131,0.64,0,lalt,True,0.27108896,False,1
178,178,178,178,178,178,178,178,178,178,178,178,102,178,O,40,138,154,91,0.85,0,lalt,True,0.36487595,False,22
179,179,179,179,179,179,179,179,179,179,179,179,102,179,O,40,138,154,91,0.93,0,lalt,True,0.3434373,False,22
180,180,180,180,180,180,180,180,180,180,180,180,102,180,A,20,75,124,89,0.52,0,lalt,True,0.36357652,False,5
181,181,181,181,181,181,181,181,181,181,181,181,102,181,O,0,245,127,32,0.68,1,ralt,True,0.47746249,False,36
182,182,182,182,182,182,182,182,182,182,182,182,102,182,D,80,0,168,107,0.72,0,lalt,True,0.33910374,False,8
183,183,183,183,183,183,183,183,183,183,183,183,102,183,A,20,75,124,89,0.79,0,lalt,True,0.45265681,False,5
184,184,184,184,184,184,184,184,184,184,184,184,102,184,I,80,76,154,68,0.68,0,lalt,True,0.40874141,False,12
185,185,185,185,185,185,185,185,185,185,185,185,102,185,A,20,3,121,112,0.95,0,lalt,True,0.4307865,False,3
186,186,186,186,186,186,186,186,186,186,186,186,102,186,I,80,3,121,112,0.81,0,lalt,True,0.37817457,False,15
187,187,187,187,187,187,187,187,187,187,187,187,102,187,I,80,3,121,112,0.92,0,lalt,True,0.39597182,False,15
188,188,188,188,188,188,188,188,188,188,188,188,102,188,R,20,157,193,131,0.85,0,lalt,True,0.34431782,False,25
189,189,189,189,189,189,189,189,189,189,189,189,102,189,T,40,3,121,112,0.71,0,lalt,True,0.36022225,False,33
190,190,190,190,190,190,190,190,190,190,190,190,102,190,I,80,3,121,112,0.9,0,lalt,True,0.39997803,False,15
191,191,191,191,191,191,191,191,191,191,191,191,102,191,I,80,3,121,112,0.72,0,lalt,True,0.38365332,False,15
192,192,192,192,192,192,192,192,192,192,192,192,102,192,R,20,76,154,68,0.9,0,lalt,True,0.32351252,False,24
193,193,193,193,193,193,193,193,193,193,193,193,102,193,D,80,75,124,89,0.59,0,lalt,True,0.33687301,False,11
194,194,194,194,194,194,194,194,194,194,194,194,102,194,A,20,138,154,91,0.97,0,lalt,True,0.36144788,False,4
195,195,195,195,195,195,195,195,195,195,195,195,102,195,D,80,3,121,112,0.69,0,lalt,True,0.34595543,False,9
196,196,196,196,196,196,196,196,196,196,196,196,102,196,I,80,3,121,112,0.78,0,lalt,True,0.3663274,False,15
197,197,197,197,197,197,197,197,197,197,197,197,102,197,A,20,76,154,68,0.59,0,lalt,True,0.4559925,False,0
198,198,198,198,198,198,198,198,198,198,198,198,102,198,I,80,3,121,112,0.75,0,lalt,True,0.37979054,False,15
199,199,199,199,199,199,199,199,199,199,199,199,102,199,O,40,138,154,91,0.61,0,lalt,True,0.37503641,False,22
200,200,200,200,200,200,200,200,200,200,200,200,102,200,A,20,0,168,107,0.69,0,lalt,True,0.31514973,False,2
201,201,201,201,201,201,201,201,201,201,201,201,102,201,R,20,76,154,68,0.74,0,lalt,True,0.33917892,False,24
202,202,202,202,202,202,202,202,202,202,202,202,102,202,D,80,0,168,107,0.93,0,lalt,True,0.34087478,False,8
203,203,203,203,203,203,203,203,203,203,203,203,102,203,I,80,3,121,112,0.74,0,lalt,True,0.28909539,False,15
204,204,204,204,204,204,204,204,204,204,204,204,102,204,D,80,0,168,107,0.67,0,lalt,True,0.30697420000000003,False,8
205,205,205,205,205,205,205,205,205,205,205,205,102,205,I,80,3,121,112,0.92,0,lalt,True,0.36487539,False,15
206,206,206,206,206,206,206,206,206,206,206,206,102,206,O,40,138,154,91,0.95,0,lalt,True,0.48245964,False,22
207,207,207,207,207,207,207,207,207,207,207,207,102,207,T,40,138,154,91,0.66,0,lalt,True,0.24620394,False,34
208,208,208,208,208,208,208,208,208,208,208,208,102,208,8,0,245,127,32,0.51,1,ralt,True,0.41606666,False,36
209,209,209,209,209,209,209,209,209,209,209,209,102,209,D,80,0,168,107,0.76,0,lalt,True,0.48011573,False,8
210,210,210,210,210,210,210,210,210,210,210,210,102,210,R,20,76,154,68,0.5,0,lalt,True,0.34191898,False,24
211,211,211,211,211,211,211,211,211,211,211,211,102,211,A,20,3,121,112,0.68,0,lalt,True,0.38787314,False,3
212,212,212,212,212,212,212,212,212,212,212,212,102,212,D,80,0,168,107,0.86,0,lalt,True,0.32277625,False,8
213,213,213,213,213,213,213,213,213,213,213,213,102,213,R,20,0,168,107,0.8,0,lalt,True,0.41142572,False,26
214,214,214,214,214,214,214,214,214,214,214,214,102,214,O,40,3,121,112,0.72,0,lalt,True,0.37055083,False,21
215,215,215,215,215,215,215,215,215,215,215,215,102,215,O,40,0,168,107,0.97,0,lalt,True,0.42609396,False,20
216,216,216,216,216,216,216,216,216,216,216,216,102,216,A,20,75,124,89,0.5,0,lalt,True,0.33210196,False,5
217,217,217,217,217,217,217,217,217,217,217,217,102,217,A,20,0,168,107,0.97,0,lalt,True,0.29579394,False,2
218,218,218,218,218,218,218,218,218,218,218,218,102,218,D,80,0,168,107,0.92,0,lalt,True,0.34584779,False,8
219,219,219,219,219,219,219,219,219,219,219,219,102,219,D,80,0,168,107,0.57,0,lalt,True,0.32529050000000004,False,8
220,220,220,220,220,220,220,220,220,220,220,220,102,220,I,80,3,121,112,0.93,0,lalt,True,0.58382848,False,15
221,221,221,221,221,221,221,221,221,221,221,221,102,221,D,80,0,168,107,0.66,0,lalt,True,0.42023654,False,8
222,222,222,222,222,222,222,222,222,222,222,222,102,222,D,80,76,154,68,0.65,0,lalt,True,0.36836393,False,6
223,223,223,223,223,223,223,223,223,223,223,223,102,223,R,20,76,154,68,1.0,0,lalt,True,0.29338539,False,24
224,224,224,224,224,224,224,224,224,224,224,224,102,224,O,40,138,154,91,0.95,0,lalt,True,0.29113081,False,22
225,225,225,225,225,225,225,225,225,225,225,225,102,225,O,40,75,124,89,0.58,0,lalt,True,0.31285437,False,23
226,226,226,226,226,226,226,226,226,226,226,226,102,226,T,40,138,154,91,0.62,0,lalt,True,0.31318893,False,34
227,227,227,227,227,227,227,227,227,227,227,227,102,227,D,80,0,168,107,0.51,0,lalt,True,0.37894885,False,8
228,228,228,228,228,228,228,228,228,228,228,228,102,228,R,20,76,154,68,0.97,0,lalt,True,0.35895389,False,24
229,229,229,229,229,229,229,229,229,229,229,229,102,229,I,80,3,121,112,0.67,0,lalt,True,0.35082746,False,15
230,230,230,230,230,230,230,230,230,230,230,230,102,230,O,40,3,121,112,0.64,0,lalt,True,0.25435894,False,21
231,231,231,231,231,231,231,231,231,231,231,231,102,231,R,0,245,127,32,0.83,1,ralt,True,0.48419822,False,36
232,232,232,232,232,232,232,232,232,232,232,232,102,232,O,40,138,154,91,0.56,0,lalt,True,0.38435186,False,22
233,233,233,233,233,233,233,233,233,233,233,233,102,233,D,80,0,168,107,0.62,0,lalt,True,0.37027563,False,8
234,234,234,234,234,234,234,234,234,234,234,234,102,234,D,80,0,168,107,0.86,0,lalt,True,0.36172364,False,8
235,235,235,235,235,235,235,235,235,235,235,235,102,235,T,40,75,124,89,0.62,0,lalt,True,0.33995541,False,35
236,236,236,236,236,236,236,236,236,236,236,236,102,236,O,40,0,168,107,0.51,0,lalt,True,0.23729963,False,20
237,237,237,237,237,237,237,237,237,237,237,237,102,237,T,40,157,193,131,0.83,0,lalt,True,0.33362499,False,31
238,238,238,238,238,238,238,238,238,238,238,238,102,238,A,20,75,124,89,0.57,0,lalt,True,0.18927482,False,5
239,239,239,239,239,239,239,239,239,239,239,239,102,239,R,20,157,193,131,0.52,0,lalt,True,0.31737962,False,25
240,240,240,240,240,240,240,240,240,240,240,240,102,240,O,40,76,154,68,0.51,0,lalt,True,0.35180258,False,18
241,241,241,241,241,241,241,241,241,241,241,241,102,241,I,80,3,121,112,0.85,0,lalt,True,0.24401178,False,15
242,242,242,242,242,242,242,242,242,242,242,242,102,242,D,80,0,168,107,0.82,0,lalt,True,0.31585992,False,8
243,243,243,243,243,243,243,243,243,243,243,243,102,243,R,20,157,193,131,0.65,0,lalt,True,0.43358427,False,25
244,244,244,244,244,244,244,244,244,244,244,244,102,244,A,20,75,124,89,0.93,0,lalt,True,0.32957717,False,5
245,245,245,245,245,245,245,245,245,245,245,245,102,245,D,80,0,168,107,0.63,0,lalt,True,0.26504845,False,8
246,246,246,246,246,246,246,246,246,246,246,246,102,246,A,20,157,193,131,0.78,0,lalt,True,0.29279144,False,1
247,247,247,247,247,247,247,247,247,247,247,247,102,247,3,0,245,127,32,0.73,1,lalt,False,0.29011407,False,36
248,248,248,248,248,248,248,248,248,248,248,248,102,248,I,80,3,121,112,0.95,0,lalt,True,0.45893341,False,15
249,249,249,249,249,249,249,249,249,249,249,249,102,249,T,40,157,193,131,0.8,0,lalt,True,0.50081422,False,31
250,250,250,250,250,250,250,250,250,250,250,250,102,250,T,40,0,168,107,0.66,0,lalt,True,0.38834419,False,32
251,251,251,251,251,251,251,251,251,251,251,251,102,251,R,20,138,154,91,0.57,0,lalt,True,0.50013899,False,28
252,252,252,252,252,252,252,252,252,252,252,252,102,252,D,80,75,124,89,0.93,0,lalt,True,0.36401401,False,11
253,253,253,253,253,253,253,253,253,253,253,253,102,253,O,40,138,154,91,0.62,0,lalt,True,0.32365317,False,22
254,254,254,254,254,254,254,254,254,254,254,254,102,254,1,0,245,127,32,0.76,1,ralt,True,0.42575995,False,36
255,255,255,255,255,255,255,255,255,255,255,255,102,255,T,40,75,124,89,0.99,0,lalt,True,0.38752359,False,35
256,256,256,256,256,256,256,256,256,256,256,256,102,256,R,20,76,154,68,0.8,0,lalt,True,0.46016182,False,24
257,257,257,257,257,257,257,257,257,257,257,257,102,257,D,80,0,168,107,1.0,0,lalt,True,0.53455501,False,8
258,258,258,258,258,258,258,258,258,258,258,258,102,258,O,40,138,154,91,0.57,0,lalt,True,0.36806155,False,22
259,259,259,259,259,259,259,259,259,259,259,259,102,259,T,40,0,168,107,0.81,0,lalt,True,0.54822621,False,32
260,260,260,260,260,260,260,260,260,260,260,260,102,260,I,80,3,121,112,0.93,0,lalt,True,0.35186916,False,15
261,261,261,261,261,261,261,261,261,261,261,261,102,261,T,40,76,154,68,0.93,0,lalt,True,0.28745612,False,30
262,262,262,262,262,262,262,262,262,262,262,262,102,262,A,20,75,124,89,0.79,0,lalt,True,0.44379716,False,5
263,263,263,263,263,263,263,263,263,263,263,263,102,263,D,80,0,168,107,0.99,0,lalt,True,0.35175126,False,8
264,264,264,264,264,264,264,264,264,264,264,264,102,264,T,40,157,193,131,0.9,0,lalt,True,0.29141183,False,31
265,265,265,265,265,265,265,265,265,265,265,265,102,265,I,80,3,121,112,0.9,0,lalt,True,0.44069645,False,15
266,266,266,266,266,266,266,266,266,266,266,266,102,266,I,80,157,193,131,0.59,0,lalt,True,0.40889316,False,13
267,267,267,267,267,267,267,267,267,267,267,267,102,267,R,20,0,168,107,0.91,0,lalt,True,0.34095301,False,26
268,268,268,268,268,268,268,268,268,268,268,268,102,268,O,40,138,154,91,0.9,0,lalt,True,0.2926089000000001,False,22
269,269,269,269,269,269,269,269,269,269,269,269,102,269,5,0,245,127,32,0.52,1,ralt,True,0.41061399,False,36
270,270,270,270,270,270,270,270,270,270,270,270,102,270,O,40,138,154,91,0.58,0,lalt,True,0.6144877,False,22
271,271,271,271,271,271,271,271,271,271,271,271,102,271,O,40,138,154,91,0.83,0,lalt,True,0.35809333,False,22
272,272,272,272,272,272,272,272,272,272,272,272,102,272,4,0,75,124,89,0.73,1,ralt,True,0.67325721,False,36
273,273,273,273,273,273,273,273,273,273,273,273,102,273,O,40,138,154,91,0.8,0,lalt,True,0.45270259,False,22
274,274,274,274,274,274,274,274,274,274,274,274,102,274,T,40,75,124,89,0.7,0,lalt,True,0.53095134,False,35
275,275,275,275,275,275,275,275,275,275,275,275,102,275,I,80,3,121,112,0.92,0,lalt,True,0.432719,False,15
276,276,276,276,276,276,276,276,276,276,276,276,102,276,D,80,138,154,91,0.55,0,lalt,True,0.41849213,False,10
277,277,277,277,277,277,277,277,277,277,277,277,102,277,7,0,3,121,112,0.58,1,ralt,True,0.46644619,False,36
278,278,278,278,278,278,278,278,278,278,278,278,102,278,O,40,138,154,91,0.9,0,lalt,True,0.43225626,False,22
279,279,279,279,279,279,279,279,279,279,279,279,102,279,9,0,245,127,32,0.64,1,ralt,True,0.48598452,False,36
280,280,280,280,280,280,280,280,280,280,280,280,102,280,A,20,138,154,91,0.61,0,lalt,True,0.36810704,False,4
281,281,281,281,281,281,281,281,281,281,281,281,102,281,I,80,3,121,112,0.61,0,lalt,True,0.52355979,False,15
282,282,282,282,282,282,282,282,282,282,282,282,102,282,R,20,0,168,107,0.97,0,lalt,True,0.61135231,False,26
283,283,283,283,283,283,283,283,283,283,283,283,102,283,I,80,3,121,112,0.77,0,lalt,True,0.46321815,False,15
284,284,284,284,284,284,284,284,284,284,284,284,102,284,A,20,76,154,68,0.72,0,lalt,True,0.64706943,False,0
285,285,285,285,285,285,285,285,285,285,285,285,102,285,5,0,0,168,107,0.8,1,ralt,True,0.62127087,False,36
286,286,286,286,286,286,286,286,286,286,286,286,102,286,A,20,0,168,107,0.9,0,lalt,True,0.62700123,False,2
287,287,287,287,287,287,287,287,287,287,287,287,102,287,T,40,157,193,131,0.99,0,lalt,True,0.54478955,False,31
288,288,288,288,288,288,288,288,288,288,288,288,102,288,T,0,245,127,32,0.55,1,ralt,True,0.49963325,False,36
289,289,289,289,289,289,289,289,289,289,289,289,102,289,A,20,75,124,89,0.95,0,lalt,True,0.38952017,False,5
290,290,290,290,290,290,290,290,290,290,290,290,102,290,D,80,0,168,107,0.69,0,lalt,True,0.34934743,False,8
291,291,291,291,291,291,291,291,291,291,291,291,102,291,I,80,3,121,112,0.89,0,lalt,True,0.37263646,False,15
292,292,292,292,292,292,292,292,292,292,292,292,102,292,I,80,3,121,112,0.65,0,lalt,True,0.34700352,False,15
293,293,293,293,293,293,293,293,293,293,293,293,102,293,R,20,3,121,112,0.95,0,lalt,True,0.48311407,False,27
294,294,294,294,294,294,294,294,294,294,294,294,102,294,R,20,76,154,68,0.56,0,lalt,True,0.38869374,False,24
295,295,295,295,295,295,295,295,295,295,295,295,102,295,I,80,3,121,112,0.62,0,lalt,True,0.48033211,False,15
296,296,296,296,296,296,296,296,296,296,296,296,102,296,R,20,76,154,68,1.0,0,lalt,True,0.37805473,False,24
297,297,297,297,297,297,297,297,297,297,297,297,102,297,R,20,157,193,131,0.72,0,lalt,True,0.35769052,False,25
298,298,298,298,298,298,298,298,298,298,298,298,102,298,D,80,0,168,107,0.64,0,lalt,True,0.3842911,False,8
299,299,299,299,299,299,299,299,299,299,299,299,102,299,D,80,0,168,107,0.55,0,lalt,True,0.36792478,False,8
300,300,300,300,300,300,300,300,300,300,300,300,102,300,T,40,157,193,131,0.64,0,lalt,True,0.41398213,False,31
301,301,301,301,301,301,301,301,301,301,301,301,102,301,D,80,0,168,107,0.98,0,lalt,True,0.35931703,False,8
302,302,302,302,302,302,302,302,302,302,302,302,102,302,T,40,75,124,89,0.66,0,lalt,True,0.38167199,False,35
303,303,303,303,303,303,303,303,303,303,303,303,102,303,O,40,138,154,91,0.78,0,lalt,True,0.29934518,False,22
304,304,304,304,304,304,304,304,304,304,304,304,102,304,R,20,0,168,107,0.74,0,lalt,True,0.27735585,False,26
305,305,305,305,305,305,305,305,305,305,305,305,102,305,O,40,76,154,68,0.86,0,lalt,True,0.29075796,False,18
306,306,306,306,306,306,306,306,306,306,306,306,102,306,O,40,138,154,91,0.51,0,lalt,True,0.27578428,False,22
307,307,307,307,307,307,307,307,307,307,307,307,102,307,I,80,3,121,112,0.81,0,lalt,True,0.50551398,False,15
308,308,308,308,308,308,308,308,308,308,308,308,102,308,O,40,75,124,89,0.9,0,lalt,True,0.33765311,False,23
309,309,309,309,309,309,309,309,309,309,309,309,102,309,T,40,157,193,131,0.67,0,lalt,True,0.29069166,False,31
310,310,310,310,310,310,310,310,310,310,310,310,102,310,D,80,0,168,107,0.97,0,lalt,True,0.28726109,False,8
311,311,311,311,311,311,311,311,311,311,311,311,102,311,D,80,0,168,107,0.9,0,lalt,True,0.26893092,False,8
312,312,312,312,312,312,312,312,312,312,312,312,102,312,I,80,3,121,112,0.9,0,lalt,True,0.26101838,False,15
313,313,313,313,313,313,313,313,313,313,313,313,102,313,T,40,157,193,131,0.62,0,lalt,True,0.3029347,False,31
314,314,314,314,314,314,314,314,314,314,314,314,102,314,O,40,76,154,68,0.63,0,lalt,True,0.25676944,False,18
315,315,315,315,315,315,315,315,315,315,315,315,102,315,A,0,245,127,32,0.85,1,ralt,True,0.45260244,False,36
316,316,316,316,316,316,316,316,316,316,316,316,102,316,A,20,157,193,131,0.53,0,lalt,True,0.42627595,False,1
317,317,317,317,317,317,317,317,317,317,317,317,102,317,R,20,76,154,68,0.9,0,lalt,True,0.42398419,False,24
318,318,318,318,318,318,318,318,318,318,318,318,102,318,D,80,0,168,107,0.61,0,lalt,True,0.45825401,False,8
319,319,319,319,319,319,319,319,319,319,319,319,102,319,O,40,0,168,107,0.75,0,lalt,True,0.36576258,False,20
320,320,320,320,320,320,320,320,320,320,320,320,102,320,I,80,3,121,112,0.77,0,lalt,True,0.32178559,False,15
321,321,321,321,321,321,321,321,321,321,321,321,102,321,D,80,0,168,107,0.95,0,lalt,True,0.40936505,False,8
322,322,322,322,322,322,322,322,322,322,322,322,102,322,I,80,3,121,112,0.97,0,lalt,True,0.27018874,False,15
323,323,323,323,323,323,323,323,323,323,323,323,102,323,O,40,3,121,112,0.76,0,lalt,True,0.29794505,False,21
324,324,324,324,324,324,324,324,324,324,324,324,102,324,A,20,3,121,112,0.85,0,lalt,True,0.43604691,False,3
325,325,325,325,325,325,325,325,325,325,325,325,102,325,D,80,0,168,107,0.77,0,lalt,True,0.38401563,False,8
326,326,326,326,326,326,326,326,326,326,326,326,102,326,T,40,157,193,131,0.86,0,lalt,True,0.39201528,False,31
327,327,327,327,327,327,327,327,327,327,327,327,102,327,T,40,76,154,68,0.64,0,lalt,True,0.37758894,False,30
328,328,328,328,328,328,328,328,328,328,328,328,102,328,T,40,157,193,131,0.82,0,lalt,True,0.31086583,False,31
329,329,329,329,329,329,329,329,329,329,329,329,102,329,R,20,3,121,112,0.62,0,lalt,True,0.31890321,False,27
330,330,330,330,330,330,330,330,330,330,330,330,102,330,T,40,157,193,131,0.95,0,lalt,True,0.40537327,False,31
331,331,331,331,331,331,331,331,331,331,331,331,102,331,R,20,76,154,68,0.89,0,lalt,True,0.35272722,False,24
332,332,332,332,332,332,332,332,332,332,332,332,102,332,D,80,0,168,107,0.6,0,lalt,True,0.22901479,False,8
333,333,333,333,333,333,333,333,333,333,333,333,102,333,I,80,3,121,112,0.95,0,lalt,True,0.45058006,False,15
334,334,334,334,334,334,334,334,334,334,334,334,102,334,R,20,3,121,112,0.59,0,lalt,True,0.40225203,False,27
335,335,335,335,335,335,335,335,335,335,335,335,102,335,I,80,76,154,68,0.97,0,lalt,True,0.262173,False,12
336,336,336,336,336,336,336,336,336,336,336,336,102,336,T,40,157,193,131,0.96,0,lalt,True,0.36238667,False,31
337,337,337,337,337,337,337,337,337,337,337,337,102,337,A,20,0,168,107,0.99,0,lalt,True,0.28423751,False,2
338,338,338,338,338,338,338,338,338,338,338,338,102,338,T,40,0,168,107,0.64,0,lalt,True,0.41261113,False,32
339,339,339,339,339,339,339,339,339,339,339,339,102,339,T,40,138,154,91,0.85,0,lalt,True,0.4843816,False,34
340,340,340,340,340,340,340,340,340,340,340,340,102,340,O,40,0,168,107,0.59,0,lalt,True,0.64850923,False,20
341,341,341,341,341,341,341,341,341,341,341,341,102,341,D,80,0,168,107,0.67,0,lalt,True,0.39608446,False,8
342,342,342,342,342,342,342,342,342,342,342,342,102,342,R,20,157,193,131,0.93,0,lalt,True,0.30046290000000003,False,25
343,343,343,343,343,343,343,343,343,343,343,343,102,343,A,20,138,154,91,0.84,0,lalt,True,0.32017379,False,4
344,344,344,344,344,344,344,344,344,344,344,344,102,344,O,40,75,124,89,0.9,0,lalt,True,0.29796197,False,23
345,345,345,345,345,345,345,345,345,345,345,345,102,345,T,40,157,193,131,0.85,0,lalt,True,0.38343943,False,31
346,346,346,346,346,346,346,346,346,346,346,346,102,346,O,40,138,154,91,0.5,0,lalt,True,0.27989285,False,22
347,347,347,347,347,347,347,347,347,347,347,347,102,347,I,80,3,121,112,0.81,0,lalt,True,0.58527161,False,15
348,348,348,348,348,348,348,348,348,348,348,348,102,348,R,20,3,121,112,0.59,0,lalt,True,0.32131481,False,27
349,349,349,349,349,349,349,349,349,349,349,349,102,349,T,40,75,124,89,0.86,0,lalt,True,0.41338929,False,35
350,350,350,350,350,350,350,350,350,350,350,350,102,350,T,0,245,127,32,0.76,1,ralt,True,0.49666404,False,36
351,351,351,351,351,351,351,351,351,351,351,351,102,351,T,40,157,193,131,0.89,0,lalt,True,0.38243628,False,31
352,352,352,352,352,352,352,352,352,352,352,352,102,352,1,0,245,127,32,0.68,1,ralt,True,0.47889509,False,36
353,353,353,353,353,353,353,353,353,353,353,353,102,353,R,20,0,168,107,0.68,0,lalt,True,0.59468582,False,26
354,354,354,354,354,354,354,354,354,354,354,354,102,354,T,40,3,121,112,0.9,0,lalt,True,0.68956805,False,33
355,355,355,355,355,355,355,355,355,355,355,355,102,355,I,80,138,154,91,0.85,0,lalt,True,0.43145896,False,16
356,356,356,356,356,356,356,356,356,356,356,356,102,356,I,80,3,121,112,0.65,0,lalt,True,0.44102825,False,15
357,357,357,357,357,357,357,357,357,357,357,357,102,357,D,80,0,168,107,0.64,0,lalt,True,0.31898616,False,8
358,358,358,358,358,358,358,358,358,358,358,358,102,358,R,20,138,154,91,0.93,0,lalt,True,0.3689418,False,28
359,359,359,359,359,359,359,359,359,359,359,359,102,359,T,40,157,193,131,0.73,0,lalt,True,0.29238003,False,31
360,360,360,360,360,360,360,360,360,360,360,360,102,360,R,20,3,121,112,0.92,0,lalt,True,0.32067952,False,27
361,361,361,361,361,361,361,361,361,361,361,361,102,361,O,40,138,154,91,0.51,0,lalt,True,0.33447806,False,22
362,362,362,362,362,362,362,362,362,362,362,362,102,362,1,0,157,193,131,0.67,1,ralt,True,0.51800143,False,36
363,363,363,363,363,363,363,363,363,363,363,363,102,363,R,20,76,154,68,0.66,0,lalt,True,0.33024825,False,24
364,364,364,364,364,364,364,364,364,364,364,364,102,364,8,0,245,127,32,0.59,1,ralt,True,0.4756884,False,36
365,365,365,365,365,365,365,365,365,365,365,365,102,365,I,80,75,124,89,0.58,0,lalt,True,0.3759813,False,17
366,366,366,366,366,366,366,366,366,366,366,366,102,366,D,80,0,168,107,1.0,0,lalt,True,0.21749581,False,8
367,367,367,367,367,367,367,367,367,367,367,367,102,367,A,20,138,154,91,0.81,0,lalt,True,0.29147592,False,4
368,368,368,368,368,368,368,368,368,368,368,368,102,368,T,40,157,193,131,0.87,0,lalt,True,0.47547562,False,31
369,369,369,369,369,369,369,369,369,369,369,369,102,369,R,20,138,154,91,0.53,0,lalt,True,0.41482021,False,28
370,370,370,370,370,370,370,370,370,370,370,370,102,370,T,40,138,154,91,0.8,0,lalt,True,0.40710631,False,34
371,371,371,371,371,371,371,371,371,371,371,371,102,371,T,40,138,154,91,0.99,0,lalt,True,0.4070572,False,34
372,372,372,372,372,372,372,372,372,372,372,372,102,372,T,40,157,193,131,0.76,0,lalt,True,0.33159401,False,31
373,373,373,373,373,373,373,373,373,373,373,373,102,373,I,80,3,121,112,0.58,0,lalt,True,0.34764102,False,15
374,374,374,374,374,374,374,374,374,374,374,374,102,374,T,40,76,154,68,0.99,0,lalt,True,0.47338416,False,30
375,375,375,375,375,375,375,375,375,375,375,375,102,375,A,20,76,154,68,0.79,0,lalt,True,0.42916859,False,0
376,376,376,376,376,376,376,376,376,376,376,376,102,376,I,80,3,121,112,0.61,0,lalt,True,0.32125017,False,15
377,377,377,377,377,377,377,377,377,377,377,377,102,377,R,20,157,193,131,0.74,0,missing,False,,True,25
378,378,378,378,378,378,378,378,378,378,378,378,102,378,O,40,138,154,91,0.84,0,lalt,True,0.51696361,False,22
379,379,379,379,379,379,379,379,379,379,379,379,102,379,R,20,0,168,107,0.51,0,lalt,True,0.77056894,False,26
380,380,380,380,380,380,380,380,380,380,380,380,102,380,D,80,0,168,107,0.52,0,lalt,True,0.4104861,False,8
381,381,381,381,381,381,381,381,381,381,381,381,102,381,T,40,75,124,89,0.92,0,lalt,True,0.41655491,False,35
382,382,382,382,382,382,382,382,382,382,382,382,102,382,D,80,0,168,107,0.51,0,lalt,True,0.43029519,False,8
383,383,383,383,383,383,383,383,383,383,383,383,102,383,D,80,0,168,107,0.89,0,lalt,True,0.41985453,False,8
384,384,384,384,384,384,384,384,384,384,384,384,102,384,6,0,157,193,131,0.65,1,ralt,True,0.56192127,False,36
385,385,385,385,385,385,385,385,385,385,385,385,102,385,A,20,3,121,112,0.99,0,lalt,True,0.42959582,False,3
386,386,386,386,386,386,386,386,386,386,386,386,102,386,A,20,75,124,89,0.83,0,lalt,True,0.55953464,False,5
387,387,387,387,387,387,387,387,387,387,387,387,102,387,R,20,75,124,89,0.78,0,ralt,False,0.34551933,False,29
388,388,388,388,388,388,388,388,388,388,388,388,102,388,O,40,138,154,91,0.57,0,lalt,True,0.39204607,False,22
389,389,389,389,389,389,389,389,389,389,389,389,102,389,I,80,3,121,112,0.69,0,lalt,True,0.43584745,False,15
390,390,390,390,390,390,390,390,390,390,390,390,102,390,A,20,75,124,89,0.82,0,lalt,True,0.39164076,False,5
391,391,391,391,391,391,391,391,391,391,391,391,102,391,T,40,157,193,131,0.73,0,lalt,True,0.34996247,False,31
392,392,392,392,392,392,392,392,392,392,392,392,102,392,D,80,0,168,107,0.74,0,lalt,True,0.32584229,False,8
393,393,393,393,393,393,393,393,393,393,393,393,102,393,A,20,75,124,89,0.78,0,lalt,True,0.30768744,False,5
394,394,394,394,394,394,394,394,394,394,394,394,102,394,R,20,75,124,89,0.52,0,lalt,True,0.30552524,False,29
395,395,395,395,395,395,395,395,395,395,395,395,102,395,7,0,245,127,32,0.61,1,ralt,True,0.49120971,False,36
396,396,396,396,396,396,396,396,396,396,396,396,102,396,I,80,3,121,112,0.5,0,lalt,True,0.43906551,False,15
397,397,397,397,397,397,397,397,397,397,397,397,102,397,T,40,138,154,91,0.82,0,lalt,True,0.33269425,False,34
398,398,398,398,398,398,398,398,398,398,398,398,102,398,T,40,76,154,68,0.56,0,lalt,True,0.37679136,False,30
399,399,399,399,399,399,399,399,399,399,399,399,102,399,O,40,138,154,91,0.99,0,lalt,True,0.4608329000000001,False,22
400,400,400,400,400,400,400,400,400,400,400,400,102,400,R,20,157,193,131,0.87,0,lalt,True,0.40403472,False,25
401,401,401,401,401,401,401,401,401,401,401,401,102,401,O,40,0,168,107,0.66,0,lalt,True,0.69631266,False,20
402,402,402,402,402,402,402,402,402,402,402,402,102,402,A,20,138,154,91,0.77,0,lalt,True,0.69830203,False,4
403,403,403,403,403,403,403,403,403,403,403,403,102,403,I,80,3,121,112,0.8,0,lalt,True,0.7139429,False,15
404,404,404,404,404,404,404,404,404,404,404,404,102,404,D,80,0,168,107,0.59,0,lalt,True,0.45508672,False,8
405,405,405,405,405,405,405,405,405,405,405,405,102,405,T,40,157,193,131,0.55,0,lalt,True,0.34062261,False,31
406,406,406,406,406,406,406,406,406,406,406,406,102,406,D,80,0,168,107,0.64,0,lalt,True,0.26838108,False,8
407,407,407,407,407,407,407,407,407,407,407,407,102,407,O,40,138,154,91,0.81,0,lalt,True,0.25445021,False,22
408,408,408,408,408,408,408,408,408,408,408,408,102,408,A,20,3,121,112,0.9,0,lalt,True,0.06216151,False,3
409,409,409,409,409,409,409,409,409,409,409,409,102,409,5,0,245,127,32,0.58,1,ralt,True,0.4118571,False,36
410,410,410,410,410,410,410,410,410,410,410,410,102,410,T,40,76,154,68,0.93,0,lalt,True,0.42960664,False,30
411,411,411,411,411,411,411,411,411,411,411,411,102,411,T,40,157,193,131,0.7,0,lalt,True,0.29523245,False,31
412,412,412,412,412,412,412,412,412,412,412,412,102,412,T,40,75,124,89,0.77,0,lalt,True,0.25304426,False,35
413,413,413,413,413,413,413,413,413,413,413,413,102,413,R,20,3,121,112,0.67,0,lalt,True,0.52344661,False,27
414,414,414,414,414,414,414,414,414,414,414,414,102,414,A,20,3,121,112,0.59,0,missing,False,,True,3
415,415,415,415,415,415,415,415,415,415,415,415,102,415,A,20,138,154,91,0.98,0,lalt,True,0.42319993,False,4
416,416,416,416,416,416,416,416,416,416,416,416,102,416,O,0,245,127,32,0.53,1,ralt,True,0.41526214,False,36
417,417,417,417,417,417,417,417,417,417,417,417,102,417,O,40,76,154,68,0.91,0,lalt,True,0.38060476,False,18
418,418,418,418,418,418,418,418,418,418,418,418,102,418,R,20,0,168,107,0.6,0,lalt,True,0.53488209,False,26
419,419,419,419,419,419,419,419,419,419,419,419,102,419,T,40,0,168,107,0.84,0,lalt,True,0.49688819,False,32
420,420,420,420,420,420,420,420,420,420,420,420,102,420,R,20,157,193,131,0.84,0,lalt,True,0.34243637,False,25
421,421,421,421,421,421,421,421,421,421,421,421,102,421,D,80,157,193,131,0.68,0,lalt,True,0.29231289,False,7
422,422,422,422,422,422,422,422,422,422,422,422,102,422,1,0,157,193,131,0.54,1,ralt,True,0.45111492,False,36
423,423,423,423,423,423,423,423,423,423,423,423,102,423,A,20,75,124,89,0.89,0,lalt,True,0.34516145,False,5
424,424,424,424,424,424,424,424,424,424,424,424,102,424,A,20,157,193,131,0.8,0,lalt,True,0.44683213,False,1
425,425,425,425,425,425,425,425,425,425,425,425,102,425,R,20,76,154,68,0.63,0,lalt,True,0.65844915,False,24
426,426,426,426,426,426,426,426,426,426,426,426,102,426,D,80,0,168,107,0.57,0,lalt,True,0.35058222,False,8
427,427,427,427,427,427,427,427,427,427,427,427,102,427,A,20,0,168,107,0.65,0,lalt,True,0.2900633,False,2
428,428,428,428,428,428,428,428,428,428,428,428,102,428,T,40,0,168,107,0.59,0,lalt,True,0.3417259,False,32
429,429,429,429,429,429,429,429,429,429,429,429,102,429,R,20,76,154,68,0.58,0,lalt,True,0.3299184,False,24
430,430,430,430,430,430,430,430,430,430,430,430,102,430,R,20,3,121,112,0.52,0,lalt,True,0.38591123,False,27
431,431,431,431,431,431,431,431,431,431,431,431,102,431,O,40,138,154,91,0.68,0,lalt,True,0.46568939,False,22
432,432,432,432,432,432,432,432,432,432,432,432,102,432,I,80,3,121,112,0.61,0,lalt,True,0.37187162,False,15
433,433,433,433,433,433,433,433,433,433,433,433,102,433,T,40,157,193,131,0.98,0,lalt,True,0.33560216,False,31
434,434,434,434,434,434,434,434,434,434,434,434,102,434,A,20,3,121,112,0.97,0,lalt,True,0.29712278,False,3
435,435,435,435,435,435,435,435,435,435,435,435,102,435,T,40,157,193,131,0.83,0,lalt,True,0.34093387,False,31
436,436,436,436,436,436,436,436,436,436,436,436,102,436,A,20,3,121,112,0.73,0,lalt,True,0.43321669,False,3
437,437,437,437,437,437,437,437,437,437,437,437,102,437,8,0,245,127,32,0.88,1,ralt,True,0.42871862,False,36
438,438,438,438,438,438,438,438,438,438,438,438,102,438,O,40,75,124,89,0.72,0,lalt,True,0.60643811,False,23
439,439,439,439,439,439,439,439,439,439,439,439,102,439,I,80,3,121,112,0.58,0,lalt,True,0.28177236,False,15
440,440,440,440,440,440,440,440,440,440,440,440,102,440,R,0,245,127,32,0.78,1,ralt,True,0.58176754,False,36
441,441,441,441,441,441,441,441,441,441,441,441,102,441,A,20,75,124,89,0.67,0,lalt,True,0.38798244,False,5
442,442,442,442,442,442,442,442,442,442,442,442,102,442,R,20,76,154,68,0.78,0,lalt,True,0.48410446,False,24
443,443,443,443,443,443,443,443,443,443,443,443,102,443,R,20,76,154,68,0.77,0,lalt,True,0.3833648,False,24
444,444,444,444,444,444,444,444,444,444,444,444,102,444,I,80,3,121,112,0.99,0,lalt,True,0.44158641,False,15
445,445,445,445,445,445,445,445,445,445,445,445,102,445,D,80,0,168,107,0.85,0,lalt,True,0.36513838,False,8
446,446,446,446,446,446,446,446,446,446,446,446,102,446,R,20,76,154,68,0.56,0,lalt,True,0.28899552,False,24
447,447,447,447,447,447,447,447,447,447,447,447,102,447,O,40,157,193,131,0.75,0,lalt,True,0.34411559,False,19
448,448,448,448,448,448,448,448,448,448,448,448,102,448,R,20,75,124,89,0.95,0,lalt,True,0.38004021,False,29
449,449,449,449,449,449,449,449,449,449,449,449,102,449,O,40,3,121,112,0.66,0,lalt,True,0.335555,False,21
450,450,450,450,450,450,450,450,450,450,450,450,102,450,D,80,0,168,107,0.76,0,lalt,True,0.42980832,False,8
451,451,451,451,451,451,451,451,451,451,451,451,102,451,I,80,3,121,112,0.75,0,lalt,True,0.30358636,False,15
452,452,452,452,452,452,452,452,452,452,452,452,102,452,R,20,3,121,112,0.97,0,lalt,True,0.37938245,False,27
453,453,453,453,453,453,453,453,453,453,453,453,102,453,O,40,157,193,131,0.57,0,lalt,True,0.58733367,False,19
454,454,454,454,454,454,454,454,454,454,454,454,102,454,5,0,157,193,131,0.67,1,ralt,True,0.49515072,False,36
455,455,455,455,455,455,455,455,455,455,455,455,102,455,O,40,138,154,91,0.57,0,lalt,True,0.4986437,False,22
456,456,456,456,456,456,456,456,456,456,456,456,102,456,A,0,245,127,32,0.62,1,ralt,True,0.62693021,False,36
457,457,457,457,457,457,457,457,457,457,457,457,102,457,I,80,75,124,89,0.69,0,lalt,True,0.37260733,False,17
458,458,458,458,458,458,458,458,458,458,458,458,102,458,D,80,0,168,107,0.97,0,lalt,True,0.47255523,False,8
459,459,459,459,459,459,459,459,459,459,459,459,102,459,O,40,3,121,112,0.69,0,lalt,True,0.27637823,False,21
460,460,460,460,460,460,460,460,460,460,460,460,102,460,8,0,157,193,131,0.96,1,ralt,True,0.45619529,False,36
461,461,461,461,461,461,461,461,461,461,461,461,102,461,R,20,157,193,131,0.65,0,lalt,True,0.33426666,False,25
462,462,462,462,462,462,462,462,462,462,462,462,102,462,D,80,0,168,107,0.57,0,lalt,True,0.44156866,False,8
463,463,463,463,463,463,463,463,463,463,463,463,102,463,R,20,157,193,131,0.91,0,lalt,True,0.41383593,False,25
464,464,464,464,464,464,464,464,464,464,464,464,102,464,A,20,75,124,89,0.89,0,lalt,True,0.32663848,False,5
465,465,465,465,465,465,465,465,465,465,465,465,102,465,I,80,157,193,131,0.58,0,lalt,True,0.38664001,False,13
466,466,466,466,466,466,466,466,466,466,466,466,102,466,O,40,3,121,112,0.99,0,lalt,True,0.34400656,False,21
467,467,467,467,467,467,467,467,467,467,467,467,102,467,D,80,0,168,107,0.72,0,lalt,True,0.3396275,False,8
468,468,468,468,468,468,468,468,468,468,468,468,102,468,A,20,157,193,131,0.92,0,lalt,True,0.27007111,False,1
469,469,469,469,469,469,469,469,469,469,469,469,102,469,O,40,75,124,89,0.77,0,lalt,True,0.23941023,False,23
470,470,470,470,470,470,470,470,470,470,470,470,102,470,I,80,3,121,112,0.89,0,lalt,True,0.2474895,False,15
471,471,471,471,471,471,471,471,471,471,471,471,102,471,I,80,3,121,112,0.56,0,lalt,True,0.36104784,False,15
472,472,472,472,472,472,472,472,472,472,472,472,102,472,I,80,3,121,112,0.8,0,lalt,True,0.37878406,False,15
473,473,473,473,473,473,473,473,473,473,473,473,102,473,T,40,138,154,91,0.71,0,lalt,True,0.35513716,False,34
474,474,474,474,474,474,474,474,474,474,474,474,102,474,A,20,75,124,89,0.7,0,lalt,True,0.35453044,False,5
475,475,475,475,475,475,475,475,475,475,475,475,102,475,A,0,245,127,32,0.93,1,ralt,True,0.43827792,False,36
476,476,476,476,476,476,476,476,476,476,476,476,102,476,I,80,3,121,112,0.56,0,lalt,True,0.26475882,False,15
477,477,477,477,477,477,477,477,477,477,477,477,102,477,D,80,0,168,107,0.76,0,lalt,True,0.37011694,False,8
478,478,478,478,478,478,478,478,478,478,478,478,102,478,I,80,3,121,112,0.72,0,lalt,True,0.30461309,False,15
479,479,479,479,479,479,479,479,479,479,479,479,102,479,R,20,157,193,131,0.57,0,lalt,True,0.33384138,False,25
480,480,480,480,480,480,480,480,480,480,480,480,102,480,O,40,138,154,91,0.62,0,lalt,True,0.37929396,False,22
481,481,481,481,481,481,481,481,481,481,481,481,102,481,I,80,75,124,89,0.86,0,lalt,True,0.38090604,False,17
482,482,482,482,482,482,482,482,482,482,482,482,102,482,D,80,0,168,107,0.67,0,lalt,True,0.39046339,False,8
483,483,483,483,483,483,483,483,483,483,483,483,102,483,A,20,3,121,112,0.9,0,lalt,True,0.27833792,False,3
484,484,484,484,484,484,484,484,484,484,484,484,102,484,T,40,157,193,131,0.69,0,lalt,True,0.34854846,False,31
485,485,485,485,485,485,485,485,485,485,485,485,102,485,D,80,3,121,112,0.68,0,lalt,True,0.32034079,False,9
486,486,486,486,486,486,486,486,486,486,486,486,102,486,I,80,3,121,112,0.83,0,lalt,True,0.26614203,False,15
487,487,487,487,487,487,487,487,487,487,487,487,102,487,I,80,3,121,112,0.99,0,lalt,True,0.30346513,False,15
488,488,488,488,488,488,488,488,488,488,488,488,102,488,2,0,3,121,112,0.59,1,lalt,False,0.28187168,False,36
489,489,489,489,489,489,489,489,489,489,489,489,102,489,A,20,138,154,91,0.53,0,lalt,True,0.5575031,False,4
490,490,490,490,490,490,490,490,490,490,490,490,102,490,D,80,0,168,107,0.71,0,lalt,True,0.41311298,False,8
491,491,491,491,491,491,491,491,491,491,491,491,102,491,A,20,3,121,112,0.71,0,lalt,True,0.29273762,False,3
492,492,492,492,492,492,492,492,492,492,492,492,102,492,D,80,0,168,107,0.58,0,lalt,True,0.31326633,False,8
493,493,493,493,493,493,493,493,493,493,493,493,102,493,D,80,0,168,107,0.74,0,lalt,True,0.35698116,False,8
494,494,494,494,494,494,494,494,494,494,494,494,102,494,A,20,75,124,89,0.8,0,lalt,True,0.3851855,False,5
495,495,495,495,495,495,495,495,495,495,495,495,102,495,D,80,0,168,107,0.56,0,lalt,True,0.37080494,False,8
496,496,496,496,496,496,496,496,496,496,496,496,102,496,R,20,3,121,112,0.79,0,lalt,True,0.2846209,False,27
497,497,497,497,497,497,497,497,497,497,497,497,102,497,6,0,245,127,32,0.98,1,ralt,True,0.368529,False,36
498,498,498,498,498,498,498,498,498,498,498,498,102,498,I,0,245,127,32,0.78,1,lalt,False,0.29955408,False,36
499,499,499,499,499,499,499,499,499,499,499,499,102,499,T,40,138,154,91,0.75,0,lalt,True,0.5007973,False,34
500,500,500,500,500,500,500,500,500,500,500,500,102,500,I,80,3,121,112,0.52,0,lalt,True,0.34868495,False,15
501,501,501,501,501,501,501,501,501,501,501,501,102,501,O,40,3,121,112,0.67,0,lalt,True,0.41886442,False,21
502,502,502,502,502,502,502,502,502,502,502,502,102,502,R,20,3,121,112,0.54,0,lalt,True,0.33889595,False,27
503,503,503,503,503,503,503,503,503,503,503,503,102,503,O,40,76,154,68,0.64,0,lalt,True,0.57283326,False,18
504,504,504,504,504,504,504,504,504,504,504,504,102,504,D,80,157,193,131,0.65,0,lalt,True,0.40253333,False,7
505,505,505,505,505,505,505,505,505,505,505,505,102,505,R,20,3,121,112,0.53,0,lalt,True,0.34210069,False,27
506,506,506,506,506,506,506,506,506,506,506,506,102,506,D,80,0,168,107,0.57,0,lalt,True,0.338125,False,8
507,507,507,507,507,507,507,507,507,507,507,507,102,507,T,40,0,168,107,0.66,0,lalt,True,0.35804035,False,32
508,508,508,508,508,508,508,508,508,508,508,508,102,508,D,80,0,168,107,0.65,0,lalt,True,0.35575996,False,8
509,509,509,509,509,509,509,509,509,509,509,509,102,509,A,20,157,193,131,0.52,0,lalt,True,0.3955102,False,1
510,510,510,510,510,510,510,510,510,510,510,510,102,510,O,40,138,154,91,0.61,0,lalt,True,0.35777541,False,22
511,511,511,511,511,511,511,511,511,511,511,511,102,511,D,80,0,168,107,0.71,0,lalt,True,0.34554069,False,8
512,512,512,512,512,512,512,512,512,512,512,512,102,512,O,40,138,154,91,0.92,0,lalt,True,0.3332416,False,22
513,513,513,513,513,513,513,513,513,513,513,513,102,513,A,20,0,168,107,0.8,0,lalt,True,0.32289998,False,2
514,514,514,514,514,514,514,514,514,514,514,514,102,514,A,0,245,127,32,0.6,1,ralt,True,0.55897952,False,36
515,515,515,515,515,515,515,515,515,515,515,515,102,515,T,40,157,193,131,0.71,0,lalt,True,0.44786412,False,31
516,516,516,516,516,516,516,516,516,516,516,516,102,516,R,20,76,154,68,0.81,0,lalt,True,0.47567703,False,24
517,517,517,517,517,517,517,517,517,517,517,517,102,517,R,20,76,154,68,0.82,0,lalt,True,0.4850438,False,24
518,518,518,518,518,518,518,518,518,518,518,518,102,518,R,20,75,124,89,0.87,0,lalt,True,0.3833587,False,29
519,519,519,519,519,519,519,519,519,519,519,519,102,519,A,20,76,154,68,0.55,0,lalt,True,0.37936331,False,0
520,520,520,520,520,520,520,520,520,520,520,520,102,520,D,80,0,168,107,0.53,0,lalt,True,0.33890982,False,8
521,521,521,521,521,521,521,521,521,521,521,521,102,521,T,40,0,168,107,0.7,0,lalt,True,0.33894838,False,32
522,522,522,522,522,522,522,522,522,522,522,522,102,522,R,20,3,121,112,0.93,0,lalt,True,0.36088555,False,27
523,523,523,523,523,523,523,523,523,523,523,523,102,523,T,40,157,193,131,0.81,0,lalt,True,0.42462863,False,31
524,524,524,524,524,524,524,524,524,524,524,524,102,524,D,80,0,168,107,0.58,0,lalt,True,0.47248921,False,8
525,525,525,525,525,525,525,525,525,525,525,525,102,525,5,0,76,154,68,0.95,1,ralt,True,0.52257412,False,36
526,526,526,526,526,526,526,526,526,526,526,526,102,526,T,40,0,168,107,0.56,0,lalt,True,0.49394894,False,32
527,527,527,527,527,527,527,527,527,527,527,527,102,527,T,40,157,193,131,0.73,0,lalt,True,0.4059786,False,31
528,528,528,528,528,528,528,528,528,528,528,528,102,528,O,40,138,154,91,0.57,0,lalt,True,0.36784738,False,22
529,529,529,529,529,529,529,529,529,529,529,529,102,529,I,80,3,121,112,0.77,0,lalt,True,0.5154661,False,15
530,530,530,530,530,530,530,530,530,530,530,530,102,530,R,20,76,154,68,0.83,0,lalt,True,0.43588546,False,24
531,531,531,531,531,531,531,531,531,531,531,531,102,531,I,80,3,121,112,0.64,0,lalt,True,0.4631954000000001,False,15
532,532,532,532,532,532,532,532,532,532,532,532,102,532,T,40,157,193,131,0.97,0,lalt,True,0.43008352,False,31
533,533,533,533,533,533,533,533,533,533,533,533,102,533,A,20,138,154,91,0.89,0,lalt,True,0.4380349,False,4
534,534,534,534,534,534,534,534,534,534,534,534,102,534,A,20,75,124,89,0.96,0,lalt,True,0.33943054,False,5
535,535,535,535,535,535,535,535,535,535,535,535,102,535,T,40,0,168,107,0.9,0,lalt,True,0.35181396,False,32
536,536,536,536,536,536,536,536,536,536,536,536,102,536,O,40,0,168,107,0.94,0,lalt,True,0.54149908,False,20
537,537,537,537,537,537,537,537,537,537,537,537,102,537,R,20,3,121,112,0.56,0,lalt,True,0.37161778,False,27
538,538,538,538,538,538,538,538,538,538,538,538,102,538,O,40,138,154,91,0.79,0,lalt,True,0.33335174,False,22
539,539,539,539,539,539,539,539,539,539,539,539,102,539,A,20,76,154,68,0.55,0,lalt,True,0.3290817,False,0
540,540,540,540,540,540,540,540,540,540,540,540,102,540,T,40,3,121,112,0.87,0,lalt,True,0.4370692,False,33
541,541,541,541,541,541,541,541,541,541,541,541,102,541,R,0,245,127,32,0.52,1,ralt,True,0.48504823,False,36
542,542,542,542,542,542,542,542,542,542,542,542,102,542,T,40,138,154,91,0.52,0,lalt,True,0.46682959,False,34
543,543,543,543,543,543,543,543,543,543,543,543,102,543,T,40,157,193,131,0.55,0,lalt,True,0.46601203,False,31
544,544,544,544,544,544,544,544,544,544,544,544,102,544,T,40,76,154,68,0.88,0,lalt,True,0.38242491,False,30
545,545,545,545,545,545,545,545,545,545,545,545,102,545,T,40,157,193,131,0.53,0,lalt,True,0.31183652,False,31
546,546,546,546,546,546,546,546,546,546,546,546,102,546,A,20,76,154,68,0.79,0,lalt,True,0.34612299,False,0
547,547,547,547,547,547,547,547,547,547,547,547,102,547,I,80,3,121,112,0.98,0,lalt,True,0.52195104,False,15
548,548,548,548,548,548,548,548,548,548,548,548,102,548,R,20,0,168,107,0.52,0,lalt,True,0.30775097,False,26
549,549,549,549,549,549,549,549,549,549,549,549,102,549,D,80,0,168,107,0.66,0,lalt,True,0.31450529,False,8
550,550,550,550,550,550,550,550,550,550,550,550,102,550,R,20,3,121,112,0.79,0,lalt,True,0.32863395,False,27
551,551,551,551,551,551,551,551,551,551,551,551,102,551,I,80,3,121,112,0.59,0,lalt,True,0.44809494,False,15
552,552,552,552,552,552,552,552,552,552,552,552,102,552,R,20,157,193,131,0.57,0,lalt,True,0.40426748,False,25
553,553,553,553,553,553,553,553,553,553,553,553,102,553,O,40,138,154,91,0.73,0,lalt,True,0.25196593,False,22
554,554,554,554,554,554,554,554,554,554,554,554,102,554,I,80,3,121,112,0.92,0,lalt,True,0.36781048,False,15
555,555,555,555,555,555,555,555,555,555,555,555,102,555,D,80,0,168,107,0.64,0,lalt,True,0.31790644,False,8
556,556,556,556,556,556,556,556,556,556,556,556,102,556,O,40,0,168,107,0.95,0,lalt,True,0.3036166,False,20
557,557,557,557,557,557,557,557,557,557,557,557,102,557,O,40,138,154,91,0.96,0,lalt,True,0.29332464,False,22
558,558,558,558,558,558,558,558,558,558,558,558,102,558,A,20,75,124,89,0.67,0,lalt,True,0.24931491,False,5
559,559,559,559,559,559,559,559,559,559,559,559,102,559,I,80,157,193,131,0.64,0,lalt,True,0.41699213,False,13
560,560,560,560,560,560,560,560,560,560,560,560,102,560,O,40,157,193,131,0.87,0,lalt,True,0.35486224,False,19
561,561,561,561,561,561,561,561,561,561,561,561,102,561,R,20,0,168,107,0.96,0,lalt,True,0.3507495,False,26
562,562,562,562,562,562,562,562,562,562,562,562,102,562,1,0,245,127,32,0.88,1,ralt,True,0.41241804,False,36
563,563,563,563,563,563,563,563,563,563,563,563,102,563,T,40,157,193,131,0.93,0,lalt,True,0.39474203,False,31
564,564,564,564,564,564,564,564,564,564,564,564,102,564,D,0,245,127,32,0.62,1,ralt,True,0.61010282,False,36
565,565,565,565,565,565,565,565,565,565,565,565,102,565,I,80,3,121,112,0.72,0,lalt,True,0.532377,False,15
566,566,566,566,566,566,566,566,566,566,566,566,102,566,T,40,157,193,131,0.56,0,lalt,True,0.39933664,False,31
567,567,567,567,567,567,567,567,567,567,567,567,102,567,A,20,75,124,89,0.73,0,lalt,True,0.38117791,False,5
568,568,568,568,568,568,568,568,568,568,568,568,102,568,R,20,76,154,68,0.51,0,lalt,True,0.34893629,False,24
569,569,569,569,569,569,569,569,569,569,569,569,102,569,D,80,0,168,107,0.53,0,lalt,True,0.28082525,False,8
570,570,570,570,570,570,570,570,570,570,570,570,102,570,I,80,3,121,112,0.69,0,lalt,True,0.42467801,False,15
571,571,571,571,571,571,571,571,571,571,571,571,102,571,I,80,3,121,112,0.75,0,lalt,True,0.39389562,False,15
572,572,572,572,572,572,572,572,572,572,572,572,102,572,I,80,0,168,107,0.57,0,lalt,True,0.51400965,False,14
573,573,573,573,573,573,573,573,573,573,573,573,102,573,T,40,0,168,107,0.9,0,lalt,True,0.41202078,False,32
574,574,574,574,574,574,574,574,574,574,574,574,102,574,1,0,76,154,68,0.6,1,ralt,True,0.42201868,False,36
575,575,575,575,575,575,575,575,575,575,575,575,102,575,I,80,76,154,68,0.63,0,lalt,True,0.49957028,False,12
576,576,576,576,576,576,576,576,576,576,576,576,102,576,R,0,245,127,32,0.87,1,ralt,True,0.47571836,False,36
577,577,577,577,577,577,577,577,577,577,577,577,102,577,A,20,157,193,131,0.76,0,lalt,True,0.27557011,False,1
578,578,578,578,578,578,578,578,578,578,578,578,102,578,A,20,76,154,68,0.67,0,lalt,True,0.41110502,False,0
579,579,579,579,579,579,579,579,579,579,579,579,102,579,O,40,138,154,91,0.85,0,lalt,True,0.33324077,False,22
580,580,580,580,580,580,580,580,580,580,580,580,102,580,D,80,0,168,107,0.53,0,lalt,True,0.28515271,False,8
581,581,581,581,581,581,581,581,581,581,581,581,102,581,T,0,245,127,32,0.51,1,ralt,True,0.51675998,False,36
582,582,582,582,582,582,582,582,582,582,582,582,102,582,A,20,75,124,89,0.68,0,lalt,True,0.34038042,False,5
583,583,583,583,583,583,583,583,583,583,583,583,102,583,R,20,157,193,131,0.63,0,lalt,True,0.27438914,False,25
584,584,584,584,584,584,584,584,584,584,584,584,102,584,R,20,0,168,107,0.88,0,lalt,True,0.30942547,False,26
585,585,585,585,585,585,585,585,585,585,585,585,102,585,8,0,138,154,91,0.58,1,lalt,False,0.28910593,False,36
586,586,586,586,586,586,586,586,586,586,586,586,102,586,T,40,75,124,89,0.73,0,lalt,True,0.41889078,False,35
587,587,587,587,587,587,587,587,587,587,587,587,102,587,I,80,3,121,112,0.87,0,lalt,True,0.42694869,False,15
588,588,588,588,588,588,588,588,588,588,588,588,102,588,I,80,3,121,112,0.64,0,lalt,True,0.41673718,False,15
589,589,589,589,589,589,589,589,589,589,589,589,102,589,R,0,245,127,32,0.51,1,ralt,True,0.5164845,False,36
590,590,590,590,590,590,590,590,590,590,590,590,102,590,I,80,3,121,112,0.87,0,lalt,True,0.51239369,False,15
591,591,591,591,591,591,591,591,591,591,591,591,102,591,T,40,157,193,131,0.69,0,lalt,True,0.48021532,False,31
592,592,592,592,592,592,592,592,592,592,592,592,102,592,A,20,3,121,112,0.56,0,lalt,True,0.33621608,False,3
593,593,593,593,593,593,593,593,593,593,593,593,102,593,D,80,0,168,107,0.55,0,lalt,True,0.30570445,False,8
594,594,594,594,594,594,594,594,594,594,594,594,102,594,R,20,76,154,68,0.6,0,lalt,True,0.30203115,False,24
595,595,595,595,595,595,595,595,595,595,595,595,102,595,O,40,157,193,131,0.75,0,lalt,True,0.35608759999999995,False,19
596,596,596,596,596,596,596,596,596,596,596,596,102,596,I,0,245,127,32,0.82,1,ralt,True,0.46714224,False,36
597,597,597,597,597,597,597,597,597,597,597,597,102,597,I,80,3,121,112,0.68,0,lalt,True,0.39504635,False,15
598,598,598,598,598,598,598,598,598,598,598,598,102,598,I,80,3,121,112,0.84,0,lalt,True,0.47715595,False,15
599,599,599,599,599,599,599,599,599,599,599,599,102,599,T,40,157,193,131,0.96,0,lalt,True,0.26145116,False,31
600,600,600,600,600,600,600,600,600,600,600,600,102,600,O,40,138,154,91,0.92,0,lalt,True,0.31884467,False,22
601,601,601,601,601,601,601,601,601,601,601,601,102,601,O,40,138,154,91,0.99,0,lalt,True,0.34716359,False,22
602,602,602,602,602,602,602,602,602,602,602,602,102,602,A,20,157,193,131,0.73,0,lalt,True,0.53771509,False,1
603,603,603,603,603,603,603,603,603,603,603,603,102,603,A,20,75,124,89,0.98,0,lalt,True,0.2916052,False,5
604,604,604,604,604,604,604,604,604,604,604,604,102,604,A,20,76,154,68,0.99,0,lalt,True,0.30936388,False,0
605,605,605,605,605,605,605,605,605,605,605,605,102,605,I,80,3,121,112,0.82,0,lalt,True,0.35542151,False,15
606,606,606,606,606,606,606,606,606,606,606,606,102,606,A,20,138,154,91,0.81,0,lalt,True,0.53275595,False,4
607,607,607,607,607,607,607,607,607,607,607,607,102,607,R,20,138,154,91,0.81,0,lalt,True,0.4086421,False,28
608,608,608,608,608,608,608,608,608,608,608,608,102,608,O,40,157,193,131,1.0,0,lalt,True,0.43246655,False,19
609,609,609,609,609,609,609,609,609,609,609,609,102,609,O,40,138,154,91,0.84,0,lalt,True,0.35612893,False,22
610,610,610,610,610,610,610,610,610,610,610,610,102,610,D,80,0,168,107,0.83,0,lalt,True,0.36448506,False,8
611,611,611,611,611,611,611,611,611,611,611,611,102,611,O,40,0,168,107,0.62,0,lalt,True,0.27247467,False,20
612,612,612,612,612,612,612,612,612,612,612,612,102,612,R,20,157,193,131,0.91,0,lalt,True,0.34611994,False,25
613,613,613,613,613,613,613,613,613,613,613,613,102,613,D,80,138,154,91,0.77,0,lalt,True,0.28580631,False,10
614,614,614,614,614,614,614,614,614,614,614,614,102,614,R,20,76,154,68,0.59,0,lalt,True,0.27798116,False,24
615,615,615,615,615,615,615,615,615,615,615,615,102,615,I,80,3,121,112,0.91,0,lalt,True,0.4613833,False,15
616,616,616,616,616,616,616,616,616,616,616,616,102,616,R,20,76,154,68,0.9,0,lalt,True,0.31717544,False,24
617,617,617,617,617,617,617,617,617,617,617,617,102,617,D,80,0,168,107,0.85,0,lalt,True,0.31651657,False,8
618,618,618,618,618,618,618,618,618,618,618,618,102,618,R,20,3,121,112,0.89,0,lalt,True,0.31640422,False,27
619,619,619,619,619,619,619,619,619,619,619,619,102,619,I,80,3,121,112,0.73,0,lalt,True,0.46016349,False,15
620,620,620,620,620,620,620,620,620,620,620,620,102,620,T,40,75,124,89,0.58,0,lalt,True,0.37585285,False,35
621,621,621,621,621,621,621,621,621,621,621,621,102,621,O,40,157,193,131,0.81,0,lalt,True,0.3579402,False,19
622,622,622,622,622,622,622,622,622,622,622,622,102,622,D,80,0,168,107,0.8,0,lalt,True,0.31316397,False,8
623,623,623,623,623,623,623,623,623,623,623,623,102,623,O,40,138,154,91,0.67,0,lalt,True,0.3195815,False,22
624,624,624,624,624,624,624,624,624,624,624,624,102,624,D,80,75,124,89,0.51,0,lalt,True,0.29910993,False,11
625,625,625,625,625,625,625,625,625,625,625,625,102,625,O,40,138,154,91,0.61,0,lalt,True,0.33913564,False,22
626,626,626,626,626,626,626,626,626,626,626,626,102,626,D,80,0,168,107,0.77,0,lalt,True,0.31073489,False,8
627,627,627,627,627,627,627,627,627,627,627,627,102,627,I,80,3,121,112,0.71,0,lalt,True,0.41458274,False,15
628,628,628,628,628,628,628,628,628,628,628,628,102,628,A,0,245,127,32,0.63,1,ralt,True,0.43897479,False,36
629,629,629,629,629,629,629,629,629,629,629,629,102,629,2,0,245,127,32,0.95,1,ralt,True,0.48785488,False,36
630,630,630,630,630,630,630,630,630,630,630,630,102,630,A,20,3,121,112,1.0,0,lalt,True,0.44010139,False,3
631,631,631,631,631,631,631,631,631,631,631,631,102,631,O,40,138,154,91,0.83,0,lalt,True,0.55429086,False,22
632,632,632,632,632,632,632,632,632,632,632,632,102,632,D,80,0,168,107,0.64,0,lalt,True,0.49792324,False,8
633,633,633,633,633,633,633,633,633,633,633,633,102,633,O,40,138,154,91,0.86,0,lalt,True,0.40368129,False,22
634,634,634,634,634,634,634,634,634,634,634,634,102,634,I,80,3,121,112,0.79,0,lalt,True,0.33489446,False,15
635,635,635,635,635,635,635,635,635,635,635,635,102,635,I,80,75,124,89,0.97,0,lalt,True,0.37651977,False,17
636,636,636,636,636,636,636,636,636,636,636,636,102,636,6,0,245,127,32,0.53,1,ralt,True,0.43437574,False,36
637,637,637,637,637,637,637,637,637,637,637,637,102,637,O,40,75,124,89,0.83,0,lalt,True,0.49005176,False,23
638,638,638,638,638,638,638,638,638,638,638,638,102,638,I,80,3,121,112,0.87,0,lalt,True,0.33828202,False,15
639,639,639,639,639,639,639,639,639,639,639,639,102,639,R,20,76,154,68,0.54,0,lalt,True,0.36198275,False,24
640,640,640,640,640,640,640,640,640,640,640,640,102,640,I,80,75,124,89,0.92,0,lalt,True,0.35985633,False,17
641,641,641,641,641,641,641,641,641,641,641,641,102,641,I,80,3,121,112,0.77,0,lalt,True,0.41924338,False,15
642,642,642,642,642,642,642,642,642,642,642,642,102,642,O,40,3,121,112,0.62,0,lalt,True,0.33300496,False,21
643,643,643,643,643,643,643,643,643,643,643,643,102,643,T,40,3,121,112,0.62,0,lalt,True,0.36761546,False,33
644,644,644,644,644,644,644,644,644,644,644,644,102,644,T,40,157,193,131,0.58,0,lalt,True,0.41093552,False,31
645,645,645,645,645,645,645,645,645,645,645,645,102,645,I,80,3,121,112,0.76,0,lalt,True,0.40681058,False,15
646,646,646,646,646,646,646,646,646,646,646,646,102,646,R,20,3,121,112,0.74,0,lalt,True,0.26066717,False,27
647,647,647,647,647,647,647,647,647,647,647,647,102,647,R,20,76,154,68,0.53,0,lalt,True,0.26071211,False,24
648,648,648,648,648,648,648,648,648,648,648,648,102,648,O,40,3,121,112,0.68,0,lalt,True,0.31082338,False,21
649,649,649,649,649,649,649,649,649,649,649,649,102,649,T,40,138,154,91,0.9,0,lalt,True,0.36839917,False,34
650,650,650,650,650,650,650,650,650,650,650,650,102,650,A,20,76,154,68,0.81,0,lalt,True,0.36243411,False,0
651,651,651,651,651,651,651,651,651,651,651,651,102,651,4,0,0,168,107,0.57,1,lalt,False,0.3711875,False,36
652,652,652,652,652,652,652,652,652,652,652,652,102,652,A,20,75,124,89,0.53,0,missing,False,,True,5
653,653,653,653,653,653,653,653,653,653,653,653,102,653,I,80,3,121,112,0.98,0,lalt,True,0.50460016,False,15
654,654,654,654,654,654,654,654,654,654,654,654,102,654,7,0,0,168,107,0.73,1,ralt,True,0.47466556,False,36
655,655,655,655,655,655,655,655,655,655,655,655,102,655,T,40,157,193,131,0.53,0,lalt,True,0.39425737,False,31
656,656,656,656,656,656,656,656,656,656,656,656,102,656,I,80,3,121,112,0.67,0,lalt,True,0.45035923,False,15
657,657,657,657,657,657,657,657,657,657,657,657,102,657,R,20,3,121,112,0.62,0,lalt,True,0.38653598,False,27
658,658,658,658,658,658,658,658,658,658,658,658,102,658,A,20,75,124,89,0.65,0,lalt,True,0.36775972,False,5
659,659,659,659,659,659,659,659,659,659,659,659,102,659,I,80,3,121,112,0.92,0,lalt,True,0.35153432,False,15
660,660,660,660,660,660,660,660,660,660,660,0,103,0,A,40,75,124,89,0.87,0,ralt,True,0.50266866,False,5
661,661,661,661,661,661,661,661,661,661,661,1,103,1,A,40,3,121,112,0.61,0,ralt,True,0.46829582,False,3
662,662,662,662,662,662,662,662,662,662,662,2,103,2,D,80,3,121,112,0.51,0,ralt,True,0.33732275,False,9
663,663,663,663,663,663,663,663,663,663,663,3,103,3,O,80,0,168,107,0.5,0,ralt,True,0.34526312,False,20
664,664,664,664,664,664,664,664,664,664,664,4,103,4,A,40,157,193,131,0.81,0,ralt,True,0.37812956,False,1
665,665,665,665,665,665,665,665,665,665,665,5,103,5,2,0,229,181,212,0.94,1,lalt,True,0.37527545,False,36
666,666,666,666,666,666,666,666,666,666,666,6,103,6,O,80,0,168,107,0.57,0,ralt,True,0.40979865,False,20
667,667,667,667,667,667,667,667,667,667,667,7,103,7,I,20,75,124,89,0.88,0,ralt,True,0.40063957,False,17
668,668,668,668,668,668,668,668,668,668,668,8,103,8,R,20,3,121,112,0.72,0,ralt,True,0.58658266,False,27
669,669,669,669,669,669,669,669,669,669,669,9,103,9,9,0,157,193,131,0.62,1,lalt,True,0.4164049,False,36
670,670,670,670,670,670,670,670,670,670,670,10,103,10,R,20,76,154,68,0.56,0,ralt,True,0.40285256,False,24
671,671,671,671,671,671,671,671,671,671,671,11,103,11,R,20,76,154,68,0.94,0,ralt,True,0.33079169,False,24
672,672,672,672,672,672,672,672,672,672,672,12,103,12,8,0,3,121,112,0.79,1,lalt,True,0.40388957,False,36
673,673,673,673,673,673,673,673,673,673,673,13,103,13,R,20,75,124,89,0.58,0,ralt,True,0.41669647,False,29
674,674,674,674,674,674,674,674,674,674,674,14,103,14,O,80,0,168,107,0.62,0,ralt,True,0.39523539,False,20
675,675,675,675,675,675,675,675,675,675,675,15,103,15,R,20,157,193,131,0.99,0,ralt,True,0.30129759,False,25
676,676,676,676,676,676,676,676,676,676,676,16,103,16,D,80,0,168,107,0.95,0,ralt,True,0.49308679,False,8
677,677,677,677,677,677,677,677,677,677,677,17,103,17,R,20,0,168,107,1.0,0,ralt,True,0.34890706,False,26
678,678,678,678,678,678,678,678,678,678,678,18,103,18,O,80,0,168,107,0.62,0,ralt,True,0.36486575,False,20
679,679,679,679,679,679,679,679,679,679,679,19,103,19,A,40,157,193,131,0.66,0,ralt,True,0.45451711,False,1
680,680,680,680,680,680,680,680,680,680,680,20,103,20,R,20,75,124,89,0.76,0,ralt,True,0.28238685,False,29
681,681,681,681,681,681,681,681,681,681,681,21,103,21,4,0,0,168,107,0.74,1,lalt,True,0.46654529,False,36
682,682,682,682,682,682,682,682,682,682,682,22,103,22,O,0,229,181,212,0.66,1,ralt,False,0.66608621,False,36
683,683,683,683,683,683,683,683,683,683,683,23,103,23,I,20,0,168,107,0.67,0,ralt,True,0.45802205,False,14
684,684,684,684,684,684,684,684,684,684,684,24,103,24,7,0,229,181,212,0.59,1,lalt,True,0.42111607,False,36
685,685,685,685,685,685,685,685,685,685,685,25,103,25,T,40,3,121,112,0.76,0,ralt,True,0.47291323,False,33
686,686,686,686,686,686,686,686,686,686,686,26,103,26,O,80,0,168,107,0.97,0,ralt,True,0.35547835,False,20
687,687,687,687,687,687,687,687,687,687,687,27,103,27,A,40,157,193,131,0.58,0,ralt,True,0.3452695,False,1
688,688,688,688,688,688,688,688,688,688,688,28,103,28,R,20,76,154,68,0.72,0,ralt,True,0.34697675,False,24
689,689,689,689,689,689,689,689,689,689,689,29,103,29,T,40,0,168,107,0.59,0,ralt,True,0.37788377,False,32
690,690,690,690,690,690,690,690,690,690,690,30,103,30,R,20,76,154,68,0.97,0,ralt,True,0.37779166,False,24
691,691,691,691,691,691,691,691,691,691,691,31,103,31,D,80,3,121,112,0.6,0,ralt,True,0.32931525,False,9
692,692,692,692,692,692,692,692,692,692,692,32,103,32,T,40,0,168,107,0.69,0,ralt,True,0.3415526,False,32
693,693,693,693,693,693,693,693,693,693,693,33,103,33,R,20,157,193,131,0.89,0,ralt,True,0.44529228,False,25
694,694,694,694,694,694,694,694,694,694,694,34,103,34,D,80,3,121,112,0.87,0,ralt,True,0.31708927,False,9
695,695,695,695,695,695,695,695,695,695,695,35,103,35,R,20,76,154,68,0.77,0,ralt,True,0.43248648,False,24
696,696,696,696,696,696,696,696,696,696,696,36,103,36,A,40,3,121,112,0.75,0,ralt,True,0.36488045,False,3
697,697,697,697,697,697,697,697,697,697,697,37,103,37,A,40,157,193,131,0.57,0,ralt,True,0.37232534,False,1
698,698,698,698,698,698,698,698,698,698,698,38,103,38,8,0,157,193,131,0.63,1,lalt,True,0.52828524,False,36
699,699,699,699,699,699,699,699,699,699,699,39,103,39,O,80,3,121,112,0.99,0,ralt,True,0.48420762,False,21
700,700,700,700,700,700,700,700,700,700,700,40,103,40,I,20,138,154,91,0.84,0,ralt,True,0.33622915,False,16
701,701,701,701,701,701,701,701,701,701,701,41,103,41,T,40,3,121,112,0.99,0,ralt,True,0.30191263,False,33
702,702,702,702,702,702,702,702,702,702,702,42,103,42,1,0,229,181,212,1.0,1,lalt,True,0.41892722,False,36
703,703,703,703,703,703,703,703,703,703,703,43,103,43,O,80,0,168,107,0.98,0,ralt,True,0.35517734,False,20
704,704,704,704,704,704,704,704,704,704,704,44,103,44,R,20,0,168,107,0.89,0,ralt,True,0.369909,False,26
705,705,705,705,705,705,705,705,705,705,705,45,103,45,R,20,3,121,112,0.99,0,ralt,True,0.34807923,False,27
706,706,706,706,706,706,706,706,706,706,706,46,103,46,D,80,3,121,112,0.64,0,ralt,True,0.33200097,False,9
707,707,707,707,707,707,707,707,707,707,707,47,103,47,R,20,138,154,91,0.84,0,ralt,True,0.33763707,False,28
708,708,708,708,708,708,708,708,708,708,708,48,103,48,O,80,0,168,107,0.73,0,ralt,True,0.39564653,False,20
709,709,709,709,709,709,709,709,709,709,709,49,103,49,D,80,3,121,112,0.71,0,ralt,True,0.39561934,False,9
710,710,710,710,710,710,710,710,710,710,710,50,103,50,R,20,3,121,112,0.92,0,ralt,True,0.35121604,False,27
711,711,711,711,711,711,711,711,711,711,711,51,103,51,R,20,157,193,131,0.62,0,ralt,True,0.40878245,False,25
712,712,712,712,712,712,712,712,712,712,712,52,103,52,I,20,138,154,91,0.76,0,ralt,True,0.36118269,False,16
713,713,713,713,713,713,713,713,713,713,713,53,103,53,O,80,75,124,89,0.71,0,ralt,True,0.36252292,False,23
714,714,714,714,714,714,714,714,714,714,714,54,103,54,A,0,229,181,212,0.81,1,ralt,False,0.57446349,False,36
715,715,715,715,715,715,715,715,715,715,715,55,103,55,D,80,3,121,112,0.59,0,ralt,True,0.4423713,False,9
716,716,716,716,716,716,716,716,716,716,716,56,103,56,D,80,3,121,112,0.75,0,ralt,True,0.33035003,False,9
717,717,717,717,717,717,717,717,717,717,717,57,103,57,D,80,3,121,112,0.53,0,ralt,True,0.42005549,False,9
718,718,718,718,718,718,718,718,718,718,718,58,103,58,I,20,0,168,107,0.88,0,ralt,True,0.37614378,False,14
719,719,719,719,719,719,719,719,719,719,719,59,103,59,D,0,229,181,212,0.76,1,lalt,True,0.43503821,False,36
720,720,720,720,720,720,720,720,720,720,720,60,103,60,A,40,0,168,107,0.9,0,ralt,True,0.26060923,False,2
721,721,721,721,721,721,721,721,721,721,721,61,103,61,R,20,0,168,107,0.93,0,ralt,True,0.28199152,False,26
722,722,722,722,722,722,722,722,722,722,722,62,103,62,R,20,76,154,68,0.94,0,ralt,True,0.34840964,False,24
723,723,723,723,723,723,723,723,723,723,723,63,103,63,T,40,75,124,89,0.91,0,ralt,True,0.32778277,False,35
724,724,724,724,724,724,724,724,724,724,724,64,103,64,I,20,75,124,89,0.89,0,ralt,True,0.29219648,False,17
725,725,725,725,725,725,725,725,725,725,725,65,103,65,I,20,76,154,68,0.81,0,ralt,True,0.30168709,False,12
726,726,726,726,726,726,726,726,726,726,726,66,103,66,I,20,3,121,112,0.65,0,ralt,True,0.35722638,False,15
727,727,727,727,727,727,727,727,727,727,727,67,103,67,A,40,157,193,131,0.83,0,ralt,True,0.38103361,False,1
728,728,728,728,728,728,728,728,728,728,728,68,103,68,O,80,0,168,107,0.63,0,ralt,True,0.39715515,False,20
729,729,729,729,729,729,729,729,729,729,729,69,103,69,O,80,0,168,107,0.52,0,ralt,True,0.40695508,False,20
730,730,730,730,730,730,730,730,730,730,730,70,103,70,T,40,138,154,91,0.6,0,ralt,True,0.42920098,False,34
731,731,731,731,731,731,731,731,731,731,731,71,103,71,I,20,75,124,89,0.77,0,ralt,True,0.46259813,False,17
732,732,732,732,732,732,732,732,732,732,732,72,103,72,R,20,138,154,91,0.53,0,ralt,True,0.52872523,False,28
733,733,733,733,733,733,733,733,733,733,733,73,103,73,6,0,229,181,212,0.8,1,lalt,True,0.45946187,False,36
734,734,734,734,734,734,734,734,734,734,734,74,103,74,O,80,3,121,112,0.53,0,ralt,True,0.43453746,False,21
735,735,735,735,735,735,735,735,735,735,735,75,103,75,I,20,157,193,131,0.79,0,ralt,True,0.40349452,False,13
736,736,736,736,736,736,736,736,736,736,736,76,103,76,D,80,3,121,112,0.62,0,ralt,True,0.41923377,False,9
737,737,737,737,737,737,737,737,737,737,737,77,103,77,T,40,138,154,91,0.66,0,ralt,True,0.4705446,False,34
738,738,738,738,738,738,738,738,738,738,738,78,103,78,D,80,138,154,91,1.0,0,ralt,True,0.40877247,False,10
739,739,739,739,739,739,739,739,739,739,739,79,103,79,A,40,157,193,131,0.89,0,ralt,True,0.31433835,False,1
740,740,740,740,740,740,740,740,740,740,740,80,103,80,T,40,75,124,89,0.59,0,ralt,True,0.53417629,False,35
741,741,741,741,741,741,741,741,741,741,741,81,103,81,O,80,0,168,107,0.7,0,ralt,True,0.66210493,False,20
742,742,742,742,742,742,742,742,742,742,742,82,103,82,D,80,3,121,112,0.99,0,ralt,True,0.30373418,False,9
743,743,743,743,743,743,743,743,743,743,743,83,103,83,A,40,0,168,107,0.78,0,ralt,True,0.41602954,False,2
744,744,744,744,744,744,744,744,744,744,744,84,103,84,T,40,138,154,91,0.71,0,ralt,True,0.38944144,False,34
745,745,745,745,745,745,745,745,745,745,745,85,103,85,D,80,3,121,112,0.55,0,ralt,True,0.28976377,False,9
746,746,746,746,746,746,746,746,746,746,746,86,103,86,R,20,75,124,89,0.89,0,ralt,True,0.3454354,False,29
747,747,747,747,747,747,747,747,747,747,747,87,103,87,D,80,3,121,112,0.61,0,ralt,True,0.46117024,False,9
748,748,748,748,748,748,748,748,748,748,748,88,103,88,D,80,3,121,112,0.93,0,ralt,True,0.41503832,False,9
749,749,749,749,749,749,749,749,749,749,749,89,103,89,I,20,75,124,89,0.77,0,ralt,True,0.41683435,False,17
750,750,750,750,750,750,750,750,750,750,750,90,103,90,T,40,138,154,91,0.71,0,ralt,True,0.41011796,False,34
751,751,751,751,751,751,751,751,751,751,751,91,103,91,I,20,76,154,68,0.88,0,ralt,True,0.5216027,False,12
752,752,752,752,752,752,752,752,752,752,752,92,103,92,A,40,157,193,131,0.73,0,ralt,True,0.47122206,False,1
753,753,753,753,753,753,753,753,753,753,753,93,103,93,O,80,0,168,107,0.9,0,ralt,True,0.37540056,False,20
754,754,754,754,754,754,754,754,754,754,754,94,103,94,A,40,157,193,131,0.91,0,ralt,True,0.40711459,False,1
755,755,755,755,755,755,755,755,755,755,755,95,103,95,I,20,75,124,89,0.55,0,ralt,True,0.47909113,False,17
756,756,756,756,756,756,756,756,756,756,756,96,103,96,I,20,157,193,131,0.67,0,ralt,True,0.44472023,False,13
757,757,757,757,757,757,757,757,757,757,757,97,103,97,A,40,0,168,107,0.82,0,ralt,True,0.4043978,False,2
758,758,758,758,758,758,758,758,758,758,758,98,103,98,O,80,76,154,68,0.88,0,ralt,True,0.35469075,False,18
759,759,759,759,759,759,759,759,759,759,759,99,103,99,T,40,138,154,91,0.89,0,ralt,True,0.35652839,False,34
760,760,760,760,760,760,760,760,760,760,760,100,103,100,D,80,138,154,91,0.79,0,ralt,True,0.33161813,False,10
761,761,761,761,761,761,761,761,761,761,761,101,103,101,I,20,76,154,68,0.74,0,ralt,True,0.39995073,False,12
762,762,762,762,762,762,762,762,762,762,762,102,103,102,O,80,0,168,107,0.98,0,ralt,True,0.38567349,False,20
763,763,763,763,763,763,763,763,763,763,763,103,103,103,A,40,3,121,112,0.67,0,ralt,True,0.35572248,False,3
764,764,764,764,764,764,764,764,764,764,764,104,103,104,O,0,229,181,212,0.84,1,lalt,True,0.45150847,False,36
765,765,765,765,765,765,765,765,765,765,765,105,103,105,R,20,76,154,68,0.74,0,ralt,True,0.33827486,False,24
766,766,766,766,766,766,766,766,766,766,766,106,103,106,A,40,76,154,68,0.55,0,ralt,True,0.40005393,False,0
767,767,767,767,767,767,767,767,767,767,767,107,103,107,O,0,229,181,212,0.82,1,lalt,True,0.47175832,False,36
768,768,768,768,768,768,768,768,768,768,768,108,103,108,R,20,3,121,112,0.79,0,ralt,True,0.41792766,False,27
769,769,769,769,769,769,769,769,769,769,769,109,103,109,D,80,3,121,112,0.54,0,ralt,True,0.46739031,False,9
770,770,770,770,770,770,770,770,770,770,770,110,103,110,T,40,0,168,107,0.65,0,ralt,True,0.42149753,False,32
771,771,771,771,771,771,771,771,771,771,771,111,103,111,A,40,157,193,131,0.68,0,ralt,True,0.43322165,False,1
772,772,772,772,772,772,772,772,772,772,772,112,103,112,A,40,157,193,131,0.9,0,ralt,True,0.40538958,False,1
773,773,773,773,773,773,773,773,773,773,773,113,103,113,O,80,0,168,107,0.55,0,ralt,True,0.37315428,False,20
774,774,774,774,774,774,774,774,774,774,774,114,103,114,O,80,0,168,107,0.56,0,ralt,True,0.4387626,False,20
775,775,775,775,775,775,775,775,775,775,775,115,103,115,I,20,157,193,131,0.76,0,ralt,True,1.20007336,False,13
776,776,776,776,776,776,776,776,776,776,776,116,103,116,I,20,76,154,68,0.59,0,ralt,True,0.83215015,False,12
777,777,777,777,777,777,777,777,777,777,777,117,103,117,I,20,75,124,89,0.83,0,ralt,True,0.37059562,False,17
778,778,778,778,778,778,778,778,778,778,778,118,103,118,T,40,138,154,91,0.75,0,ralt,True,0.39447248,False,34
779,779,779,779,779,779,779,779,779,779,779,119,103,119,A,40,75,124,89,0.87,0,ralt,True,0.5341344,False,5
780,780,780,780,780,780,780,780,780,780,780,120,103,120,R,20,0,168,107,0.55,0,ralt,True,0.41807775,False,26
781,781,781,781,781,781,781,781,781,781,781,121,103,121,O,80,0,168,107,0.58,0,ralt,True,0.72246165,False,20
782,782,782,782,782,782,782,782,782,782,782,122,103,122,T,40,0,168,107,0.73,0,ralt,True,0.38876175,False,32
783,783,783,783,783,783,783,783,783,783,783,123,103,123,O,0,229,181,212,1.0,1,lalt,True,0.44085075,False,36
784,784,784,784,784,784,784,784,784,784,784,124,103,124,T,40,138,154,91,0.61,0,ralt,True,0.62212594,False,34
785,785,785,785,785,785,785,785,785,785,785,125,103,125,I,20,157,193,131,0.86,0,ralt,True,0.37013815,False,13
786,786,786,786,786,786,786,786,786,786,786,126,103,126,D,80,3,121,112,0.99,0,ralt,True,0.40633809,False,9
787,787,787,787,787,787,787,787,787,787,787,127,103,127,D,80,3,121,112,0.51,0,ralt,True,0.38767537,False,9
788,788,788,788,788,788,788,788,788,788,788,128,103,128,A,40,157,193,131,0.64,0,ralt,True,0.38588322,False,1
789,789,789,789,789,789,789,789,789,789,789,129,103,129,O,80,0,168,107,0.94,0,ralt,True,0.37383424,False,20
790,790,790,790,790,790,790,790,790,790,790,130,103,130,D,80,3,121,112,0.81,0,ralt,True,0.27373573,False,9
791,791,791,791,791,791,791,791,791,791,791,131,103,131,A,40,157,193,131,0.98,0,ralt,True,0.30344844,False,1
792,792,792,792,792,792,792,792,792,792,792,132,103,132,T,40,157,193,131,0.95,0,ralt,True,0.30874192,False,31
793,793,793,793,793,793,793,793,793,793,793,133,103,133,I,20,0,168,107,0.9,0,ralt,True,0.29700004,False,14
794,794,794,794,794,794,794,794,794,794,794,134,103,134,O,80,0,168,107,0.75,0,ralt,True,0.35099382,False,20
795,795,795,795,795,795,795,795,795,795,795,135,103,135,A,0,229,181,212,0.86,1,ralt,False,0.27226678,False,36
796,796,796,796,796,796,796,796,796,796,796,136,103,136,I,20,76,154,68,0.75,0,ralt,True,0.81150636,False,12
797,797,797,797,797,797,797,797,797,797,797,137,103,137,O,80,0,168,107,0.81,0,ralt,True,0.34729662,False,20
798,798,798,798,798,798,798,798,798,798,798,138,103,138,A,40,157,193,131,0.89,0,ralt,True,0.30118717,False,1
799,799,799,799,799,799,799,799,799,799,799,139,103,139,T,40,138,154,91,0.96,0,ralt,True,0.31693863,False,34
800,800,800,800,800,800,800,800,800,800,800,140,103,140,O,80,0,168,107,0.9,0,ralt,True,0.39042157,False,20
801,801,801,801,801,801,801,801,801,801,801,141,103,141,I,20,0,168,107,0.59,0,ralt,True,0.3525804,False,14
802,802,802,802,802,802,802,802,802,802,802,142,103,142,O,80,0,168,107,0.75,0,ralt,True,0.36844671,False,20
803,803,803,803,803,803,803,803,803,803,803,143,103,143,A,40,75,124,89,0.71,0,ralt,True,0.58830684,False,5
804,804,804,804,804,804,804,804,804,804,804,144,103,144,I,20,76,154,68,0.92,0,ralt,True,0.31429008,False,12
805,805,805,805,805,805,805,805,805,805,805,145,103,145,A,40,157,193,131,0.64,0,ralt,True,0.27603222,False,1
806,806,806,806,806,806,806,806,806,806,806,146,103,146,O,80,0,168,107,0.52,0,ralt,True,0.35792715,False,20
807,807,807,807,807,807,807,807,807,807,807,147,103,147,R,20,76,154,68,0.7,0,ralt,True,0.26774702,False,24
808,808,808,808,808,808,808,808,808,808,808,148,103,148,D,80,3,121,112,0.9,0,ralt,True,0.28362498,False,9
809,809,809,809,809,809,809,809,809,809,809,149,103,149,T,40,75,124,89,0.51,0,ralt,True,0.34924939,False,35
810,810,810,810,810,810,810,810,810,810,810,150,103,150,I,20,75,124,89,0.84,0,ralt,True,0.31687676,False,17
811,811,811,811,811,811,811,811,811,811,811,151,103,151,1,0,229,181,212,0.94,1,lalt,True,0.4401977,False,36
812,812,812,812,812,812,812,812,812,812,812,152,103,152,R,20,76,154,68,0.77,0,ralt,True,0.34214296,False,24
813,813,813,813,813,813,813,813,813,813,813,153,103,153,O,80,0,168,107,0.6,0,ralt,True,0.31339123,False,20
814,814,814,814,814,814,814,814,814,814,814,154,103,154,A,40,76,154,68,0.99,0,ralt,True,0.28358254,False,0
815,815,815,815,815,815,815,815,815,815,815,155,103,155,I,20,138,154,91,0.58,0,ralt,True,0.27522742,False,16
816,816,816,816,816,816,816,816,816,816,816,156,103,156,D,80,3,121,112,0.95,0,ralt,True,0.34144219,False,9
817,817,817,817,817,817,817,817,817,817,817,157,103,157,T,40,138,154,91,0.96,0,ralt,True,0.31304612,False,34
818,818,818,818,818,818,818,818,818,818,818,158,103,158,A,40,157,193,131,0.99,0,ralt,True,0.37070326,False,1
819,819,819,819,819,819,819,819,819,819,819,159,103,159,D,0,229,181,212,0.93,1,lalt,True,0.49295973,False,36
820,820,820,820,820,820,820,820,820,820,820,160,103,160,O,80,0,168,107,0.54,0,ralt,True,0.32828574,False,20
821,821,821,821,821,821,821,821,821,821,821,161,103,161,I,20,75,124,89,0.72,0,ralt,True,0.2627157,False,17
822,822,822,822,822,822,822,822,822,822,822,162,103,162,T,40,0,168,107,0.63,0,ralt,True,0.2683432,False,32
823,823,823,823,823,823,823,823,823,823,823,163,103,163,R,20,76,154,68,0.83,0,ralt,True,0.30421412,False,24
824,824,824,824,824,824,824,824,824,824,824,164,103,164,R,20,0,168,107,0.64,0,ralt,True,0.24611672,False,26
825,825,825,825,825,825,825,825,825,825,825,165,103,165,T,40,157,193,131,0.55,0,ralt,True,0.28999431,False,31
826,826,826,826,826,826,826,826,826,826,826,166,103,166,R,20,138,154,91,0.87,0,ralt,True,0.34598636,False,28
827,827,827,827,827,827,827,827,827,827,827,167,103,167,D,80,3,121,112,0.78,0,ralt,True,0.27455357,False,9
828,828,828,828,828,828,828,828,828,828,828,168,103,168,O,80,0,168,107,0.53,0,ralt,True,0.31997917,False,20
829,829,829,829,829,829,829,829,829,829,829,169,103,169,O,80,0,168,107,0.79,0,ralt,True,0.3980662,False,20
830,830,830,830,830,830,830,830,830,830,830,170,103,170,I,20,0,168,107,0.77,0,ralt,True,0.36402654,False,14
831,831,831,831,831,831,831,831,831,831,831,171,103,171,T,40,76,154,68,0.54,0,ralt,True,0.48007626,False,30
832,832,832,832,832,832,832,832,832,832,832,172,103,172,D,80,3,121,112,0.95,0,ralt,True,0.6057231,False,9
833,833,833,833,833,833,833,833,833,833,833,173,103,173,R,0,229,181,212,0.8,1,lalt,True,0.41383597,False,36
834,834,834,834,834,834,834,834,834,834,834,174,103,174,R,20,3,121,112,0.8,0,ralt,True,0.34543956,False,27
835,835,835,835,835,835,835,835,835,835,835,175,103,175,R,20,138,154,91,0.74,0,ralt,True,0.3194787,False,28
836,836,836,836,836,836,836,836,836,836,836,176,103,176,T,40,75,124,89,0.63,0,ralt,True,0.3430296,False,35
837,837,837,837,837,837,837,837,837,837,837,177,103,177,I,20,3,121,112,0.82,0,ralt,True,0.70296916,False,15
838,838,838,838,838,838,838,838,838,838,838,178,103,178,6,0,0,168,107,0.7,1,lalt,True,0.50629262,False,36
839,839,839,839,839,839,839,839,839,839,839,179,103,179,4,0,229,181,212,0.75,1,lalt,True,0.44070122,False,36
840,840,840,840,840,840,840,840,840,840,840,180,103,180,I,20,157,193,131,0.88,0,ralt,True,0.42852657,False,13
841,841,841,841,841,841,841,841,841,841,841,181,103,181,T,40,76,154,68,0.77,0,ralt,True,0.37434331,False,30
842,842,842,842,842,842,842,842,842,842,842,182,103,182,A,40,157,193,131,0.53,0,ralt,True,0.36604257,False,1
843,843,843,843,843,843,843,843,843,843,843,183,103,183,T,40,75,124,89,0.73,0,ralt,True,0.36890695,False,35
844,844,844,844,844,844,844,844,844,844,844,184,103,184,T,40,3,121,112,0.67,0,ralt,True,0.31852992,False,33
845,845,845,845,845,845,845,845,845,845,845,185,103,185,A,0,229,181,212,0.87,1,ralt,False,0.26896352,False,36
846,846,846,846,846,846,846,846,846,846,846,186,103,186,D,80,3,121,112,0.58,0,ralt,True,0.89191098,False,9
847,847,847,847,847,847,847,847,847,847,847,187,103,187,T,40,138,154,91,0.86,0,ralt,True,0.49060081,False,34
848,848,848,848,848,848,848,848,848,848,848,188,103,188,I,20,138,154,91,1.0,0,ralt,True,0.42459689,False,16
849,849,849,849,849,849,849,849,849,849,849,189,103,189,D,80,3,121,112,0.61,0,ralt,True,0.39380667,False,9
850,850,850,850,850,850,850,850,850,850,850,190,103,190,R,20,0,168,107,0.69,0,ralt,True,0.45026173,False,26
851,851,851,851,851,851,851,851,851,851,851,191,103,191,R,20,76,154,68,0.89,0,ralt,True,0.34394093,False,24
852,852,852,852,852,852,852,852,852,852,852,192,103,192,A,40,157,193,131,0.91,0,ralt,True,0.72976312,False,1
853,853,853,853,853,853,853,853,853,853,853,193,103,193,R,20,76,154,68,0.77,0,ralt,True,0.38563798,False,24
854,854,854,854,854,854,854,854,854,854,854,194,103,194,A,40,76,154,68,0.72,0,ralt,True,0.44494411,False,0
855,855,855,855,855,855,855,855,855,855,855,195,103,195,R,20,0,168,107,0.7,0,ralt,True,0.35508385,False,26
856,856,856,856,856,856,856,856,856,856,856,196,103,196,R,0,229,181,212,0.69,1,lalt,True,0.44516577,False,36
857,857,857,857,857,857,857,857,857,857,857,197,103,197,O,80,0,168,107,0.62,0,ralt,True,0.29294358,False,20
858,858,858,858,858,858,858,858,858,858,858,198,103,198,D,80,3,121,112,0.54,0,ralt,True,0.31958024,False,9
859,859,859,859,859,859,859,859,859,859,859,199,103,199,D,80,138,154,91,0.63,0,ralt,True,0.33961065,False,10
860,860,860,860,860,860,860,860,860,860,860,200,103,200,R,20,0,168,107,0.99,0,ralt,True,0.31136356,False,26
861,861,861,861,861,861,861,861,861,861,861,201,103,201,A,40,0,168,107,0.73,0,ralt,True,0.31129115,False,2
862,862,862,862,862,862,862,862,862,862,862,202,103,202,A,40,76,154,68,0.85,0,ralt,True,0.25729349,False,0
863,863,863,863,863,863,863,863,863,863,863,203,103,203,I,20,0,168,107,0.56,0,ralt,True,0.32267432,False,14
864,864,864,864,864,864,864,864,864,864,864,204,103,204,I,20,75,124,89,0.68,0,ralt,True,0.42661874,False,17
865,865,865,865,865,865,865,865,865,865,865,205,103,205,I,20,138,154,91,0.88,0,ralt,True,0.32446508,False,16
866,866,866,866,866,866,866,866,866,866,866,206,103,206,O,80,75,124,89,0.87,0,ralt,True,0.3165519,False,23
867,867,867,867,867,867,867,867,867,867,867,207,103,207,I,20,76,154,68,0.74,0,ralt,True,0.32064082,False,12
868,868,868,868,868,868,868,868,868,868,868,208,103,208,A,40,157,193,131,0.91,0,ralt,True,0.29401249,False,1
869,869,869,869,869,869,869,869,869,869,869,209,103,209,T,40,138,154,91,0.61,0,ralt,True,0.30983302,False,34
870,870,870,870,870,870,870,870,870,870,870,210,103,210,A,40,3,121,112,1.0,0,ralt,True,0.53393687,False,3
871,871,871,871,871,871,871,871,871,871,871,211,103,211,I,20,76,154,68,0.79,0,ralt,True,0.48731003,False,12
872,872,872,872,872,872,872,872,872,872,872,212,103,212,T,40,0,168,107,0.71,0,ralt,True,0.38328184,False,32
873,873,873,873,873,873,873,873,873,873,873,213,103,213,A,40,138,154,91,0.72,0,ralt,True,0.36322396,False,4
874,874,874,874,874,874,874,874,874,874,874,214,103,214,O,80,0,168,107,0.94,0,ralt,True,0.35410289,False,20
875,875,875,875,875,875,875,875,875,875,875,215,103,215,A,40,75,124,89,0.55,0,ralt,True,0.36421658,False,5
876,876,876,876,876,876,876,876,876,876,876,216,103,216,O,80,0,168,107,0.85,0,ralt,True,0.45634587,False,20
877,877,877,877,877,877,877,877,877,877,877,217,103,217,2,0,0,168,107,0.53,1,lalt,True,0.73789851,False,36
878,878,878,878,878,878,878,878,878,878,878,218,103,218,R,20,75,124,89,0.56,0,ralt,True,0.4656223,False,29
879,879,879,879,879,879,879,879,879,879,879,219,103,219,D,0,229,181,212,0.76,1,lalt,True,0.48737994,False,36
880,880,880,880,880,880,880,880,880,880,880,220,103,220,D,80,3,121,112,0.82,0,ralt,True,0.56487412,False,9
881,881,881,881,881,881,881,881,881,881,881,221,103,221,A,40,157,193,131,0.87,0,ralt,True,0.37824747,False,1
882,882,882,882,882,882,882,882,882,882,882,222,103,222,D,80,3,121,112,0.82,0,ralt,True,0.34593171,False,9
883,883,883,883,883,883,883,883,883,883,883,223,103,223,D,80,3,121,112,0.75,0,ralt,True,0.28905357,False,9
884,884,884,884,884,884,884,884,884,884,884,224,103,224,O,80,0,168,107,0.76,0,ralt,True,0.3466666,False,20
885,885,885,885,885,885,885,885,885,885,885,225,103,225,O,80,0,168,107,0.63,0,ralt,True,0.38248536,False,20
886,886,886,886,886,886,886,886,886,886,886,226,103,226,O,80,0,168,107,0.82,0,ralt,True,0.31858041,False,20
887,887,887,887,887,887,887,887,887,887,887,227,103,227,R,20,76,154,68,0.89,0,ralt,True,0.35035381,False,24
888,888,888,888,888,888,888,888,888,888,888,228,103,228,D,80,3,121,112,0.85,0,ralt,True,0.28613204,False,9
889,889,889,889,889,889,889,889,889,889,889,229,103,229,A,40,157,193,131,0.88,0,ralt,True,0.30998477,False,1
890,890,890,890,890,890,890,890,890,890,890,230,103,230,D,80,3,121,112,0.69,0,ralt,True,0.32387861,False,9
891,891,891,891,891,891,891,891,891,891,891,231,103,231,I,20,75,124,89,0.97,0,ralt,True,0.29565177,False,17
892,892,892,892,892,892,892,892,892,892,892,232,103,232,I,20,75,124,89,0.55,0,ralt,True,0.23720205,False,17
893,893,893,893,893,893,893,893,893,893,893,233,103,233,O,80,0,168,107,0.9,0,ralt,True,0.311406,False,20
894,894,894,894,894,894,894,894,894,894,894,234,103,234,R,20,76,154,68,0.54,0,ralt,True,0.26097488,False,24
895,895,895,895,895,895,895,895,895,895,895,235,103,235,A,40,75,124,89,0.98,0,ralt,True,0.30659079,False,5
896,896,896,896,896,896,896,896,896,896,896,236,103,236,A,40,157,193,131,0.71,0,ralt,True,0.28278245,False,1
897,897,897,897,897,897,897,897,897,897,897,237,103,237,R,20,3,121,112,0.86,0,ralt,True,0.29667546,False,27
898,898,898,898,898,898,898,898,898,898,898,238,103,238,D,80,3,121,112,0.83,0,ralt,True,0.29552471,False,9
899,899,899,899,899,899,899,899,899,899,899,239,103,239,R,20,75,124,89,0.59,0,ralt,True,0.24338245,False,29
900,900,900,900,900,900,900,900,900,900,900,240,103,240,A,40,3,121,112,0.5,0,ralt,True,0.35113586,False,3
901,901,901,901,901,901,901,901,901,901,901,241,103,241,D,80,3,121,112,0.75,0,ralt,True,0.30916471,False,9
902,902,902,902,902,902,902,902,902,902,902,242,103,242,T,0,229,181,212,0.55,1,lalt,True,0.39301935,False,36
903,903,903,903,903,903,903,903,903,903,903,243,103,243,D,80,3,121,112,0.5,0,ralt,True,0.30890172,False,9
904,904,904,904,904,904,904,904,904,904,904,244,103,244,D,0,229,181,212,0.71,1,lalt,True,0.52467986,False,36
905,905,905,905,905,905,905,905,905,905,905,245,103,245,D,80,3,121,112,0.61,0,ralt,True,0.31862286,False,9
906,906,906,906,906,906,906,906,906,906,906,246,103,246,I,20,157,193,131,0.93,0,ralt,True,0.38439402,False,13
907,907,907,907,907,907,907,907,907,907,907,247,103,247,T,40,138,154,91,0.99,0,ralt,True,0.32421707,False,34
908,908,908,908,908,908,908,908,908,908,908,248,103,248,A,40,157,193,131,0.98,0,ralt,True,0.27605331,False,1
909,909,909,909,909,909,909,909,909,909,909,249,103,249,I,20,138,154,91,0.97,0,ralt,True,0.39586875,False,16
910,910,910,910,910,910,910,910,910,910,910,250,103,250,D,80,3,121,112,0.52,0,ralt,True,0.26761802,False,9
911,911,911,911,911,911,911,911,911,911,911,251,103,251,A,40,157,193,131,0.96,0,ralt,True,0.27772089,False,1
912,912,912,912,912,912,912,912,912,912,912,252,103,252,T,40,138,154,91,0.91,0,ralt,True,0.27096511,False,34
913,913,913,913,913,913,913,913,913,913,913,253,103,253,R,20,3,121,112,1.0,0,ralt,True,0.25132809,False,27
914,914,914,914,914,914,914,914,914,914,914,254,103,254,T,40,138,154,91,0.59,0,ralt,True,0.31417135,False,34
915,915,915,915,915,915,915,915,915,915,915,255,103,255,I,20,0,168,107,0.85,0,ralt,True,0.33417679,False,14
916,916,916,916,916,916,916,916,916,916,916,256,103,256,D,80,3,121,112,0.82,0,ralt,True,0.32979214,False,9
917,917,917,917,917,917,917,917,917,917,917,257,103,257,R,20,3,121,112,0.96,0,ralt,True,0.28795387,False,27
918,918,918,918,918,918,918,918,918,918,918,258,103,258,T,40,0,168,107,0.84,0,ralt,True,0.39759958,False,32
919,919,919,919,919,919,919,919,919,919,919,259,103,259,A,40,138,154,91,0.74,0,ralt,True,0.31140157,False,4
920,920,920,920,920,920,920,920,920,920,920,260,103,260,R,20,75,124,89,0.66,0,ralt,True,0.28926663,False,29
921,921,921,921,921,921,921,921,921,921,921,261,103,261,D,80,3,121,112,0.92,0,ralt,True,0.44684806,False,9
922,922,922,922,922,922,922,922,922,922,922,262,103,262,T,40,3,121,112,0.78,0,ralt,True,0.27688335,False,33
923,923,923,923,923,923,923,923,923,923,923,263,103,263,D,80,3,121,112,0.51,0,ralt,True,0.61853583,False,9
924,924,924,924,924,924,924,924,924,924,924,264,103,264,7,0,157,193,131,0.53,1,ralt,False,0.31853353,False,36
925,925,925,925,925,925,925,925,925,925,925,265,103,265,I,20,75,124,89,1.0,0,ralt,True,0.45065262,False,17
926,926,926,926,926,926,926,926,926,926,926,266,103,266,O,80,0,168,107,0.62,0,ralt,True,0.37245157,False,20
927,927,927,927,927,927,927,927,927,927,927,267,103,267,I,20,75,124,89,0.51,0,ralt,True,0.28998016,False,17
928,928,928,928,928,928,928,928,928,928,928,268,103,268,R,20,0,168,107,0.82,0,ralt,True,0.31393138,False,26
929,929,929,929,929,929,929,929,929,929,929,269,103,269,O,80,0,168,107,0.63,0,ralt,True,0.3239463,False,20
930,930,930,930,930,930,930,930,930,930,930,270,103,270,O,80,0,168,107,0.58,0,ralt,True,0.34100719,False,20
931,931,931,931,931,931,931,931,931,931,931,271,103,271,D,80,3,121,112,0.62,0,ralt,True,0.30477729,False,9
932,932,932,932,932,932,932,932,932,932,932,272,103,272,R,20,0,168,107,0.89,0,ralt,True,0.22229229,False,26
933,933,933,933,933,933,933,933,933,933,933,273,103,273,6,0,229,181,212,0.77,1,lalt,True,0.39841409,False,36
934,934,934,934,934,934,934,934,934,934,934,274,103,274,T,40,138,154,91,0.52,0,ralt,True,0.30234097,False,34
935,935,935,935,935,935,935,935,935,935,935,275,103,275,D,80,3,121,112,0.5,0,ralt,True,0.4519934000000001,False,9
936,936,936,936,936,936,936,936,936,936,936,276,103,276,O,80,0,168,107,0.95,0,ralt,True,0.38161786,False,20
937,937,937,937,937,937,937,937,937,937,937,277,103,277,8,0,157,193,131,0.87,1,ralt,False,0.30400578,False,36
